timestamp,frame_index,structural_dx_pixels,structural_dy_pixels,structural_displacement_pixels,velocity_x_pixels_s,velocity_y_pixels_s,velocity_magnitude_pixels_s,acceleration_x_pixels_s2,acceleration_y_pixels_s2,acceleration_magnitude_pixels_s2,optical_dominant_frequency_hz,valid_feature_count,tracking_quality,camera_fps
0.0,1,0.03431404110652551,-0.01355491754404332,0.0013834554252232225,1.0294212331957653,-0.40664752632129963,1.10682893258964,-25.19302833918647,27.55751524077574,37.33771984394119,1.18,45,GOOD,29.9
0.033444816053511704,2,0.006321787396318322,0.01706454383459639,0.03695829880431025,0.18965362188954965,0.5119363150378917,0.5459370723356308,-22.753984562102072,0.5689695766972569,22.761097070035675,1.18,45,GOOD,29.9
0.06688963210702341,3,-0.016250369031479098,-0.012290540706938306,0.035012376445707344,-0.48751107094437296,-0.3687162212081492,0.611243565262937,-1.034812817232835,-16.40204455116741,16.434655549332025,1.18,45,GOOD,29.9
0.1003344481605351,4,0.004022203358023133,-0.019384444056886743,0.03945899853558703,0.12066610074069399,-0.5815333217066023,0.5939202910518195,4.300957158443175,9.56244898361223,10.485163949264225,1.18,45,GOOD,29.9
0.13377926421404682,5,-0.006692686457160931,0.008959345923311095,0.021069980418631583,-0.20078059371482795,0.26878037769933283,0.3354932760111219,-4.499691429228355,15.687002704063618,16.31959793608808,1.18,45,GOOD,29.9
0.16722408026755853,6,-0.00597711092915099,0.015475561952143512,0.02465925317977936,-0.17931332787452972,0.4642668585643054,0.4976916570675134,18.609549452780755,7.801188191255156,20.178549700879678,1.18,45,GOOD,29.9
0.2006688963210702,7,0.03466186788235186,0.026295319681655886,0.0263401140829193,1.0398560364705558,0.7888595904496766,1.30522029942408,7.3300938317448745,-11.69896748992322,13.805655214891637,1.18,45,GOOD,29.9
0.23411371237458192,8,0.010311986474726507,-0.0105221435810192,0.06516460628520548,0.3093595942417952,-0.315664307430576,0.4419811235053748,-26.153035393900815,-18.817952559138753,32.21950649579577,1.18,45,GOOD,29.9
0.26755852842809363,9,-0.023455988548538843,-0.015522352671985786,0.02915620949655161,-0.7036796564561653,-0.4656705801595736,0.843809307922365,-1.120586395999999,6.31592028628286,6.41455867021104,1.18,45,GOOD,29.9
0.3010033444816053,10,0.007821794483615398,0.0035132348329427105,0.010367093378956064,0.23465383450846194,0.10539704498828131,0.257237165164341,18.642577964892066,8.308951776785587,20.41039913392258,1.18,45,GOOD,29.9
0.33444816053511706,11,0.017971962484554634,0.0029419846097599647,0.04586563393078612,0.539158874536639,0.08825953829279894,0.5463350968876824,-6.175574218704266,-9.310787470985824,11.172666658438862,1.18,45,GOOD,29.9
0.36789297658862874,12,-0.005901703780171859,-0.017177403991470233,0.04668686148630427,-0.17705111340515578,-0.515322119744107,0.5448889647034202,-21.112937465907503,0.5956152963299279,21.121337221410556,1.18,45,GOOD,29.9
0.4013377926421404,13,-0.028945676328573144,0.0042655741571598045,0.04020826439752417,-0.8683702898571943,0.12796722471479413,0.8777485806926004,-6.381079261321236,13.219791296944983,14.67927295454534,1.18,45,GOOD,29.9
0.43478260869565216,14,-0.020081879916441274,0.01219991000174084,0.018512712204961007,-0.6024563974932382,0.3659973000522252,0.7049168280911225,17.197889479823807,-2.9898489634985546,17.45584714027846,1.18,45,GOOD,29.9
0.46822742474916385,15,0.009271855848813093,-0.0023785346506147607,0.007510596182522387,0.2781556754643928,-0.07135603951844283,0.2871624351631149,13.81486215418569,-11.469468698511413,17.955476283443033,1.18,45,GOOD,29.9
0.5016722408026756,16,0.010617813759526924,-0.013287798217173411,0.011929607835261676,0.31853441278580774,-0.39863394651520234,0.5102677683756682,-3.7259563256171293,7.805297463101877,8.649012604217369,1.18,45,GOOD,29.9
0.5351170568561873,17,0.0009919529029972503,0.014966570822944968,0.029026104841104704,0.029758587089917507,0.448997124688349,0.4499822124084385,6.044271237551473,19.714067852035317,20.619837197896214,1.18,45,GOOD,29.9
0.568561872909699,18,0.02404952762075242,0.030521241454016183,0.04061730940448435,0.7214858286225726,0.9156372436204855,1.1657329723432037,3.1669755944898084,-19.162296096205854,19.422237927045384,1.18,45,GOOD,29.9
0.6020066889632106,19,0.008029676446307935,-0.027616309390845816,0.07135655675652157,0.24089029338923804,-0.8284892817253745,0.8627992949597143,-18.61440777495003,-22.928154053842633,29.53297183029267,1.18,45,GOOD,29.9
0.6354515050167224,20,-0.01731582299024765,-0.020430211998967444,0.029480438956605612,-0.5194746897074295,-0.6129063599690233,0.8034352241077735,-7.955267791603457,13.854497119458822,15.976025039702966,1.18,45,GOOD,29.9
0.6688963210702341,21,-0.009648696423921969,0.003171461985729344,0.02778551081953538,-0.28946089271765907,0.09514385957188032,0.3046965087216094,4.556469147614644,19.224517629742998,19.757112369712925,1.18,45,GOOD,29.9
0.7023411371237458,22,-0.007190335995548441,0.02229093828935032,0.010887133963352207,-0.21571007986645324,0.6687281486805097,0.7026579362631958,8.832829619851264,0.3019065032593415,8.837987702527771,1.18,45,GOOD,29.9
0.7357859531772575,23,0.00997981384241417,0.003842365326305658,0.04128830013500268,0.2993944152724251,0.11527095978916975,0.32081834434307793,-4.7341136920043,-5.503281930359109,7.259334987024615,1.18,45,GOOD,29.9
0.7692307692307692,24,-0.017710588644446884,0.010061422888552302,0.025717743254673176,-0.5313176593334066,0.30184268665656905,0.6110707509017148,-3.795159293221715,0.4097508752853988,3.817214932476857,1.18,45,GOOD,29.9
0.8026755852842808,25,0.001546126524143692,0.004752922826939877,0.06348457262644543,0.04638379572431076,0.14258768480819634,0.14994233679903796,15.46027971399207,-14.126239797346615,20.942084415048424,1.18,45,GOOD,29.9
0.8361204013377926,26,0.016645588497757716,-0.021330221105551286,0.02983176206698683,0.4993676549327315,-0.6399066331665386,0.8116948650592479,-14.643104078787946,2.023792685914521,14.7822946086789,1.18,45,GOOD,29.9
0.8695652173913043,27,-0.030994104762051743,0.009250239906749924,0.019853719701766727,-0.9298231428615523,0.2775071972024977,0.9703511330957061,-4.987405559495092,15.899717123533057,16.663589613983323,1.18,45,GOOD,29.9
0.903010033444816,28,0.005562465032213068,0.01400248361341106,0.04245125389138243,0.16687395096639204,0.4200745084023318,0.4520060930126878,24.808482866852216,-1.145881034908333,24.834932363529045,1.18,45,GOOD,29.9
0.9364548494983277,29,0.024135857164286515,0.006703837606953629,0.049761803360509414,0.7240757149285955,0.20111512820860886,0.7514871494202158,-17.15181761102514,6.489358335098741,18.33839194049434,1.18,45,GOOD,29.9
0.9698996655518394,30,-0.032552685214509464,0.028423279913630483,0.04257534391988973,-0.976580556435284,0.8526983974089145,1.2964583063682302,-12.394959993187797,0.8738180443873196,12.425722965180857,1.18,45,GOOD,29.9
1.0033444816053512,31,-0.0034084983761308134,0.008645655483369895,0.11035860874398216,-0.10225495128392441,0.25936966450109683,0.2787986691601832,6.82097801764531,-16.052654096160218,17.441715645204457,1.18,45,GOOD,29.9
1.0367892976588629,32,-0.017394956286408775,-0.007249284744503336,0.05770945851156989,-0.5218486885922633,-0.21747854233510008,0.5653520762866843,-18.698159104159544,1.0720621847928093,18.7288673232667,1.18,45,GOOD,29.9
1.0702341137123745,33,-0.044959963052040905,0.011028015894020582,0.11688831954301347,-1.3487988915612272,0.33084047682061746,1.3887814338403608,2.9688458615367046,9.027799566806888,9.503431525928002,1.18,45,GOOD,29.9
1.1036789297658862,34,-0.010797521038549432,0.012812492070623079,0.11376498953900363,-0.323925631156483,0.38437476211869237,0.5026646717981355,14.28643343899314,4.783573636320704,15.066013312780651,1.18,45,GOOD,29.9
1.137123745819398,35,-0.01321233318761171,0.021658179530288812,0.15038717536952298,-0.39636999562835135,0.6497453859086644,0.761103304383852,-4.063142870143205,3.6481950160957015,5.460627881357699,1.18,45,GOOD,29.9
1.1705685618729096,36,-0.019826727416645443,0.020919592106391306,0.16338194000094516,-0.5948018224993633,0.6275877631917391,0.8646708093584371,-6.845785398238119,4.7905366606090976,8.35547839536253,1.18,45,GOOD,29.9
1.2040133779264213,37,-0.028425189628140862,0.032303816553864585,0.20800693947836268,-0.8527556888442259,0.9691144966159375,1.2908815485579428,-6.3845913445180145,-3.731794618721593,7.395221275446312,1.18,45,GOOD,29.9
1.237458193979933,38,-0.03401470818224103,0.012626715175898875,0.24944064432646126,-1.020441245467231,0.3788014552769663,1.0884809956864938,3.085819952587199,-7.330551407399757,7.953569558149085,1.18,45,GOOD,29.9
1.2709030100334449,39,-0.021567811955724867,0.016013702315198455,0.27438016384111846,-0.647034358671746,0.4804110694559537,0.8058835256769868,2.1925541557730392,-1.46194436800994,2.635256166135203,1.18,45,GOOD,29.9
1.3043478260869565,40,-0.029142365613856497,0.009377949913654565,0.3021980580333583,-0.874270968415695,0.28133849740963696,0.9184231466700028,-4.129666552350293,-8.659770338660653,9.594048579820075,1.18,45,GOOD,29.9
1.3377926421404682,41,-0.030744848738725516,-0.0032302317707141037,0.3315730217076329,-0.9223454621617655,-0.09690695312142311,0.927422292773728,-15.484873927225493,2.7969982267314757,15.7354542235808,1.18,45,GOOD,29.9
1.37123745819398,42,-0.06355319656324648,0.015593501528613399,0.3433765269607363,-1.9065958968973946,0.467805045858402,1.9631478484812503,-36.27356562326688,15.232289205920367,39.34201567635099,1.18,45,GOOD,29.9
1.4046822742474916,43,-0.11135277234598526,0.030619299797997823,0.4549342219823083,-3.3405831703795577,0.9185789939399347,3.4645754842882033,-5.774922408191522,4.949103234351652,7.605481683950238,1.18,45,GOOD,29.9
1.4381270903010033,44,-0.07638635747033876,0.026591508716061515,0.5633664801060028,-2.2915907241101627,0.7977452614818454,2.4264759527027007,9.069756084580805,-10.466761532449434,13.849677700616493,1.18,45,GOOD,29.9
1.471571906354515,45,-0.09119775882469458,0.007359829725887973,0.6144500697978531,-2.7359327647408374,0.2207948917766392,2.7448275861002815,-18.523365368645223,18.609407108672116,26.256905711005277,1.18,45,GOOD,29.9
1.5050167224080266,46,-0.11754939162288369,0.06794574673533288,0.7338366045685706,-3.526481748686511,2.0383724020599865,4.0732094929304665,-7.46363989115648,14.637702816796441,16.43071100645717,1.18,45,GOOD,29.9
1.5384615384615383,47,-0.10778362524948676,0.03988805820765784,0.8858010069239963,-3.2335087574846026,1.1966417462297352,3.4478298034487387,-10.29454177696331,-12.025859481779252,15.830315431890257,1.18,45,GOOD,29.9
1.57190635451505,48,-0.1404261511272466,0.04122161455360121,0.9634750538866308,-4.212784533817398,1.2366484366080364,4.390541297395593,-11.826388654443738,21.37676699536789,24.430096925313364,1.18,45,GOOD,29.9
1.6053511705685617,49,-0.1340644889260284,0.08739198486403094,1.1738021330344455,-4.021934667780852,2.621759545920928,4.800997978392095,4.551482493157047,1.4946748523295272,4.790620606946597,1.18,45,GOOD,29.9
1.6387959866220736,50,-0.13031174558689762,0.0445431142254446,1.279420804103288,-3.9093523676069286,1.3362934267633382,4.131430267658502,-20.146536343297516,-15.78020650154667,25.590971921036203,1.18,45,GOOD,29.9
1.6722408026755853,51,-0.17883456968891176,0.05232485930503833,1.4478371620852921,-5.365037090667353,1.56974577915115,5.589966439559299,-19.79163360226177,18.73213473505525,27.250718015832916,1.18,45,GOOD,29.9
1.705685618729097,52,-0.17429315359192377,0.08617008030334516,1.6486738432802086,-5.228794607757713,2.585102409100355,5.832927868202435,4.195913424232156,2.9229422351550074,5.11363674635817,1.18,45,GOOD,29.9
1.7391304347826086,53,-0.16951031763506252,0.05882028649427168,1.836463470454364,-5.085309529051876,1.7646085948281505,5.382770336843955,-24.20933175451248,-25.029484408070385,34.821930356226446,1.18,45,GOOD,29.9
1.7725752508361203,54,-0.2280916686019515,0.030549003840966538,2.0068068545100193,-6.842750058058545,0.9164701152289961,6.903850072906282,-24.897317618168803,11.982702650247395,27.630808663233594,1.18,45,GOOD,29.9
1.806020066889632,55,-0.22483769011988208,0.08544851460593256,2.2807551070944587,-6.7451307035964625,2.563455438177977,7.215822336513279,1.1154226492358665,34.16319557653798,34.18139990824268,1.18,45,GOOD,29.9
1.8394648829431437,56,-0.22561295160364958,0.10646721623327315,2.4877077572723443,-6.768388548109487,3.1940164869981946,7.484171621321623,-13.350458564695744,7.445777284217576,15.286410411009786,1.18,45,GOOD,29.9
1.8729096989966554,57,-0.25450537581920596,0.10199468634863829,2.778656806276742,-7.635161274576179,3.0598405904591486,8.225467289328256,-27.88351525826368,-28.599706912703283,39.9428799493771,1.18,45,GOOD,29.9
1.906354515050167,58,-0.2875763188442355,0.042912311982821416,3.036067176885969,-8.627289565327066,1.2873693594846425,8.722811766382511,-26.893073046503783,-11.146382939770671,29.111496535296823,1.18,45,GOOD,29.9
1.9397993311036787,59,-0.3142677603669921,0.07722494648248124,3.3470232832451834,-9.428032811009764,2.316748394474437,9.70850790846753,-9.654025892381428,56.74159901777196,57.55700891311493,1.18,45,GOOD,29.9
1.9732441471571907,60,-0.30902970971619426,0.16900475424453687,3.6777679048714864,-9.270891291485828,5.070142627336106,10.566729465642549,-11.023115969571897,14.2458518676119,18.012589517128635,1.18,45,GOOD,29.9
2.0066889632107023,61,-0.3387635736327075,0.10888239507717434,4.044175193124206,-10.162907208981224,3.2664718523152305,10.674948304339944,-5.3904643703655,-26.13440185425557,26.684528596321446,1.18,45,GOOD,29.9
2.040133779264214,62,-0.3210085194281176,0.1109283056795245,4.388721394605077,-9.630255582843528,3.327849170385735,10.189033452282212,-3.7627157711281534,-5.517423712783532,6.678322723609765,1.18,45,GOOD,29.9
2.0735785953177257,63,-0.34712516423521445,0.09662145349321094,4.723050861416622,-10.413754927056434,2.8986436047963284,10.80964506486771,-28.641149413682516,4.192943398380054,28.94643698417657,1.18,45,GOOD,29.9
2.1070234113712374,64,-0.38465551812518983,0.12024595767592461,5.107364868491185,-11.539665543755696,3.6073787302777385,12.090370638049217,-0.943103793272746,38.581764596813215,38.59328962616163,1.18,45,GOOD,29.9
2.140468227424749,65,-0.34922095044248724,0.18235870815279587,5.527785565737425,-10.476628513274617,5.470761244583876,11.819008994006207,4.184763709974906,3.505317178934697,5.4588914472864944,1.18,45,GOOD,29.9
2.1739130434782608,66,-0.3753560432141345,0.1280355514068906,5.888548955445627,-11.260681296424035,3.8410665422067183,11.89776178284361,-30.566080257306407,-38.03864760600427,48.797786568551146,1.18,45,GOOD,29.9
2.2073578595317724,67,-0.4171455732365015,0.09782838013945305,6.3207251597320795,-12.514367197095044,2.9348514041835916,12.853899762654402,-25.203460676539173,0.7801403479562175,25.21553190072273,1.18,45,GOOD,29.9
2.240802675585284,68,-0.43136373360644376,0.1297691966245711,6.739262257770572,-12.940912008193314,3.893075898737133,13.513816764967986,6.019950186726151,37.28872989029099,37.771539246921684,1.18,45,GOOD,29.9
2.274247491638796,69,-0.4037679061548878,0.18069222434009968,7.220240098843711,-12.113037184646634,5.420766730202991,13.270658679203066,28.583057151989557,21.863738762091852,35.98630612901106,1.18,45,GOOD,29.9
2.3076923076923075,70,-0.36784582882424477,0.17835528276255297,7.621604738760559,-11.035374864727343,5.3506584828765895,12.264136520988147,-1.5880835404331695,5.534638192379719,5.757970931842483,1.18,45,GOOD,29.9
2.341137123745819,71,-0.40729698068918374,0.19299142032316574,8.03365056845879,-12.218909420675512,5.789742609694972,13.521200646288417,-19.973987094173566,1.9517500014873068,20.069117780971787,1.18,45,GOOD,29.9
2.374581939799331,72,-0.4122324668112971,0.18269250498808032,8.519717248420614,-12.366974004338914,5.48077514964241,13.527044845971801,21.75636843147757,-22.715408696549627,31.45360646376622,1.18,45,GOOD,29.9
2.4080267558528425,73,-0.35894949528590026,0.14251273433083322,8.933905624679753,-10.768484858577008,4.275382029924997,11.58616233492384,19.7428538484468,14.473963583219307,24.480112334086403,1.18,45,GOOD,29.9
2.441471571906354,74,-0.36835945825919314,0.21485686850634544,9.292032833229527,-11.050783747775794,6.445706055190364,12.793238369936805,-14.230110314256228,28.1569049623009,31.548491827850448,1.18,45,GOOD,29.9
2.474916387959866,75,-0.3905719626509141,0.20508363424705744,9.776024008035504,-11.717158879527423,6.152509027411724,13.234242688588989,-2.5482179260211346,-29.403608323462183,29.51382044124532,1.18,45,GOOD,29.9
2.508361204013378,76,-0.37402216476146233,0.14951551667642948,10.168460419201514,-11.22066494284387,4.485465500292885,12.083986201327901,24.15928585479823,-9.122552849365402,25.824253396822893,1.18,45,GOOD,29.9
2.5418060200668897,77,-0.3368846607513625,0.184811294581801,10.581616408834542,-10.106539822540874,5.54433883745403,11.52743858492014,44.98098673446025,29.208562163819888,53.63235284120416,1.18,45,GOOD,29.9
2.5752508361204014,78,-0.2740644164626618,0.21442343259602925,10.931071618905182,-8.221932493879853,6.4327029778808775,10.439341048914672,43.399484171027815,18.258618884106472,47.08388673279154,1.18,45,GOOD,29.9
2.608695652173913,79,-0.2404413625935229,0.22538600321314872,11.250732929072383,-7.213240877805687,6.761580096394462,9.886850325619616,18.457965580093294,-14.18511086401617,23.2790434421249,1.18,45,GOOD,29.9
2.6421404682274248,80,-0.23304671517356557,0.18290096400932665,11.547882691521957,-6.991401455206967,5.4870289202797995,8.887473244958716,35.44713152879066,-15.496035801712194,38.68625413744953,1.18,45,GOOD,29.9
2.6755852842809364,81,-0.1616699591962103,0.19095036809823274,11.822595700347488,-4.850098775886309,5.728511042946982,7.505950766226714,58.10677094732575,13.61938245999057,59.681524850798496,1.18,45,GOOD,29.9
2.709030100334448,82,-0.10392055751284168,0.21316625836486125,11.997199950621424,-3.1176167253852505,6.3949877509458375,7.114450251505675,15.844408323348214,11.328019107968279,19.47740465327659,1.18,45,GOOD,29.9
2.74247491638796,83,-0.12646016292210316,0.2161237438937178,12.186257369435811,-3.7938048876630948,6.483712316811534,7.512088985949911,24.20418423442681,-8.590286557564598,25.683371227219183,1.18,45,GOOD,29.9
2.7759197324414715,84,-0.05013348143633767,0.19407673268138437,12.408308120858536,-1.50400444309013,5.822301980441531,6.0134207998682605,69.3869347317861,-22.63997938871256,72.98709048999332,1.18,45,GOOD,29.9
2.809364548494983,85,0.027733025370754838,0.16581267858546767,12.443924063516587,0.8319907611226451,4.97438035756403,5.043477824707103,53.80051789197764,4.810028401811439,54.01510991075774,1.18,45,GOOD,29.9
2.842809364548495,86,0.06942322499027931,0.2047656846854098,12.505230520672464,2.0826967497083793,6.142970540562294,6.486425272325431,49.3323716082704,14.393813429740332,51.38934474720082,1.18,45,GOOD,29.9
2.8762541806020065,87,0.13736051783357794,0.1977989306515573,12.50767185997907,4.120815535007338,5.933967919546719,7.224478939256964,58.53130700319023,-7.869114064011429,59.05791103361283,1.18,45,GOOD,29.9
2.9096989966555182,88,0.1994927961084798,0.18727876454316217,12.449098919221505,5.984783883254394,5.618362936294865,8.20875387700188,48.13052429123519,-6.776359192932824,48.60520972551014,1.18,45,GOOD,29.9
2.94314381270903,89,0.24431723848076725,0.18274035466726213,12.3438215461796,7.3295171544230175,5.482210640017864,9.152947897727069,23.979181039934662,5.095803231278295,24.514655492538914,1.18,45,GOOD,29.9
2.9765886287625416,90,0.2527798650861124,0.1986027717237806,12.21343795833595,7.583395952583372,5.958083151713418,9.643995490272129,36.65236467456805,5.065789626832529,37.00078459682778,1.18,45,GOOD,29.9
3.0100334448160533,91,0.32576693775758514,0.1939976649491122,12.125618900879994,9.773008132727554,5.819929948473366,11.374676811562432,72.47897698197652,-23.138969288136657,76.08294161026645,1.18,45,GOOD,29.9
3.043478260869565,92,0.41384425837939354,0.1471828399723658,11.88324191220745,12.415327751381806,4.415485199170974,13.177134465365722,71.40129719327292,-16.460183764705373,73.27402602866827,1.18,45,GOOD,29.9
3.0769230769230766,93,0.4844364870759694,0.15741947880532248,11.618206899506225,14.533094612279083,4.722584364159674,15.281153166108268,44.30242158092263,-8.021344456293079,45.02273342235346,1.18,45,GOOD,29.9
3.1103678929765883,94,0.5122940841147772,0.1293576300694923,11.300210368588333,15.368822523443315,3.880728902084769,15.851206975135193,31.55910608864321,-35.50774156542227,47.505545867730575,1.18,45,GOOD,29.9
3.1438127090301,95,0.554567833939621,0.07851338643771744,10.98484185092808,16.63703501818863,2.355401593131523,16.80294173236821,51.2093165429532,5.004592680335818,51.453280252015524,1.18,45,GOOD,29.9
3.1772575250836117,96,0.6260925653213398,0.14047894713690523,10.571671983325889,18.782776959640195,4.214368414107157,19.249769127067854,51.04439148264294,30.223791912062282,59.321223009787595,1.18,45,GOOD,29.9
3.2107023411371234,97,0.6679998150121609,0.1456773684645225,10.27972695390587,20.039994450364826,4.370321053935675,20.510999090369207,31.635242067341398,-17.816690900235233,36.30734106615096,1.18,45,GOOD,29.9
3.2441471571906355,98,0.6963931032487651,0.10088630069193805,9.871128642357831,20.891793097462955,3.0265890207581414,21.10988536036552,34.300427776398394,-30.55823612106725,45.938275331958444,1.18,45,GOOD,29.9
3.277591973244147,99,0.7442229878486017,0.07777017708437306,9.54691489372361,22.326689635458052,2.333105312531192,22.448261635980444,59.93540939276382,-9.057538340340487,60.615940971537675,1.18,45,GOOD,29.9
3.311036789297659,100,0.8295829018993515,0.08075843771340363,9.123672419815454,24.887487056980543,2.422753131402109,25.00513436770722,43.319546138159595,5.518667731020654,43.66965503804153,1.18,45,GOOD,29.9
3.3444816053511706,101,0.8404886459334009,0.09003388315330785,8.81800284780408,25.214659378002025,2.7010164945992354,25.35891436266077,1.496831660815836,-26.8633969958755,26.905066496458126,1.18,45,GOOD,29.9
3.3779264214046822,102,0.8329091944789422,0.02106199994479141,8.52425147251851,24.987275834368265,0.6318599983437423,24.995263564929882,0.68373886591381,-18.27836433236012,18.291148173454168,1.18,45,GOOD,29.9
3.411371237458194,103,0.8420080656354315,0.04941529574806314,8.245771182132867,25.260241969062946,1.4824588724418941,25.303705433080168,13.95463847665642,8.978656068072933,16.593619249667103,1.18,45,GOOD,29.9
3.4448160535117056,104,0.8639195022048454,0.04101456898495348,8.15363379547822,25.91758506614536,1.2304370695486044,25.9467761204162,31.691848563123255,-24.35964812739786,39.97206177117432,1.18,45,GOOD,29.9
3.4782608695652173,105,0.9124343957757054,-0.004717255646154328,8.021485143320358,27.373031873271163,-0.14151766938462984,27.373397691661644,12.582935119564969,-12.935494072872023,18.045976369609065,1.18,45,GOOD,29.9
3.511705685618729,106,0.8918815802483231,0.012269026600793431,8.020474387495497,26.75644740744969,0.36807079802380294,26.758978941282106,-30.158484186569634,-19.06251881047456,35.67791742564674,1.18,45,GOOD,29.9
3.5451505016722407,107,0.8454155420277729,-0.04707840855832002,8.11705281669222,25.362466260833187,-1.4123522567496005,25.401760445470064,-13.600365869998665,-31.92566771787211,34.70184737200321,1.18,45,GOOD,29.9
3.5785953177257523,108,0.8616585449816594,-0.05867690166114459,8.180289627495386,25.84975634944978,-1.7603070498343376,25.909623390462773,-2.161591465757553,14.438862701734712,14.59976827844818,1.18,45,GOOD,29.9
3.612040133779264,109,0.8406120054372006,-0.014992046998909547,8.436263186418907,25.218360163116017,-0.4497614099672864,25.222370519888347,-20.503277212079,0.6614995300180837,20.51394545336348,1.18,45,GOOD,29.9
3.6454849498327757,110,0.8160957067325949,-0.057206902705548845,8.728013850486139,24.482871201977847,-1.7162070811664654,24.54294906970395,-20.309141321801896,-40.04662282308746,44.90204027395137,1.18,45,GOOD,29.9
3.6789297658862874,111,0.7954805802776408,-0.10398454216132613,9.034735022937484,23.864417408329224,-3.119536264839784,24.067445330707983,-25.04992667775298,-11.566197992764815,27.591226188204054,1.18,45,GOOD,29.9
3.712374581939799,112,0.760429203004255,-0.08290956491169288,9.346593072210979,22.81287609012765,-2.4872869473507864,22.948069894045105,-11.599408338409454,7.9820820222725075,14.080479651327533,1.18,45,GOOD,29.9
3.7458193979933108,113,0.7697041173033976,-0.08624658211183167,9.76120947258791,23.091123519101927,-2.58739746335495,23.23563235652944,-44.32109005294367,2.9525501054215697,44.419326600097925,1.18,45,GOOD,29.9
3.7792642140468224,114,0.6619378917754912,-0.0763483424552005,10.173937935916957,19.858136753264738,-2.290450273656015,19.98979133876726,-67.30195626148046,-7.434572559513142,67.71134458689248,1.18,45,GOOD,29.9
3.812709030100334,115,0.6201442145001077,-0.10276785446630532,10.528688130843461,18.60432643500323,-3.0830356339891596,18.858050557271472,-19.4215976651369,-37.709401126522636,42.416946957406516,1.18,45,GOOD,29.9
3.846153846153846,116,0.6187787858529648,-0.1601470116252508,10.91034106000492,18.563363575588944,-4.804410348757524,19.175005242209213,-49.01970253489384,-10.669705876962032,50.16745817868746,1.18,45,GOOD,29.9
3.8795986622073575,117,0.5112115422003436,-0.1264783119706654,11.227187299467575,15.336346266010308,-3.7943493591199617,15.798753237202687,-67.2983654456598,12.493896722024544,68.44828300957002,1.18,45,GOOD,29.9
3.913043478260869,118,0.4692268626403875,-0.13238279668741848,11.53374089167373,14.076805879211625,-3.9714839006225544,14.626316970923032,-30.901348928999894,-19.14091665839608,36.34925110859187,1.18,45,GOOD,29.9
3.9464882943143813,119,0.44254187791367716,-0.16901368232265668,11.808903700858728,13.276256337410315,-5.0704104696797,14.211546174419766,-30.75910633035979,-21.626224956760808,37.600747706964604,1.18,45,GOOD,29.9
3.979933110367893,120,0.40087329301736574,-0.18044107436910917,12.054829822874723,12.026198790520972,-5.413232231073275,13.188348666025579,-68.13685635251923,-10.885567853456624,69.00091869747857,1.18,45,GOOD,29.9
4.013377926421405,121,0.29112664157474555,-0.19320383310811584,12.273053342574133,8.733799247242366,-5.796114993243475,10.482089405554273,-71.98827160499688,-18.123604780876203,74.23460311019518,1.18,45,GOOD,29.9
4.046822742474916,122,0.24089935611737268,-0.22071575165994517,12.340266419730877,7.22698068352118,-6.621472549798355,9.801691105504265,-37.330187687044656,16.161690540508733,40.678534313285546,1.18,45,GOOD,29.9
4.080267558528428,123,0.20817066893686853,-0.15728896524031866,12.462095298434743,6.245120068106056,-4.71866895720956,7.8273470213600564,-46.56040883041999,22.321817317859537,51.63463177778792,1.18,45,GOOD,29.9
4.113712374581939,124,0.1374317809386616,-0.17111171317581286,12.545858722674767,4.122953428159848,-5.133351395274386,6.584074841474733,-69.56446682085407,-35.59622563797469,78.14285843082087,1.18,45,GOOD,29.9
4.147157190635451,125,0.053582964890526164,-0.2363916888802624,12.542213023015583,1.607488946715785,-7.091750666407872,7.271653747828614,-60.69573272354339,-2.703932502291706,60.75593157729346,1.18,45,GOOD,29.9
4.180602006688963,126,0.0025523748863429674,-0.17712045206979443,12.422196519411184,0.07657124659028902,-5.313613562093833,5.31416524423845,-18.018127866131017,23.20018719448742,29.375187108502054,1.18,45,GOOD,29.9
4.214046822742475,127,0.013542680743568347,-0.18483571733695703,12.388526569245544,0.4062804223070504,-5.545071520108711,5.559935426304044,-42.679096952410326,-7.843785116111346,43.39389682456475,1.18,45,GOOD,29.9
4.247491638795986,128,-0.09229006278567997,-0.19455108566115298,12.28644528244749,-2.768701883570399,-5.836532569834589,6.459939826254284,-69.46950309317378,-14.232137688918378,70.91237975987559,1.18,45,GOOD,29.9
4.280936454849498,129,-0.14083399279681785,-0.21646268997899787,12.056025380367997,-4.225019783904536,-6.493880699369936,7.747340105612642,-29.440831319947105,-14.936826508843692,33.013199405160265,1.18,45,GOOD,29.9
4.31438127090301,130,-0.15771413238556242,-0.2277440334585834,11.851989819436234,-4.731423971566873,-6.832321003757502,8.310654793522804,-18.946238833622697,13.597792864279779,23.320804804305766,1.18,45,GOOD,29.9
4.3478260869565215,131,-0.18293674576042385,-0.18624537250282058,11.583503663327917,-5.488102372812715,-5.5873611750846175,7.8318498807954375,-30.464260389140385,18.691212495897425,35.741188922923925,1.18,45,GOOD,29.9
4.381270903010034,132,-0.2254124888058744,-0.18620800568992246,11.369451637854215,-6.762374664176232,-5.586240170697674,8.771304939597584,-61.23066509491739,-7.793485779154903,61.72465284273233,1.18,45,GOOD,29.9
4.414715719063545,133,-0.3190048904157958,-0.20356422978983146,11.02391825202897,-9.570146712473875,-6.106926893694944,11.352632478117535,-42.11355953152003,-10.530136281505321,43.41008715174339,1.18,45,GOOD,29.9
4.448160535117057,134,-0.3189981766536967,-0.20960830853771206,10.6248738572066,-9.5699452996109,-6.288249256131362,11.451023174580575,-6.690305780674244,7.413064762168338,9.985675771174684,1.18,45,GOOD,29.9
4.481605351170568,135,-0.3338722365950719,-0.1870907525405685,10.275727503271005,-10.016167097852158,-5.612722576217055,11.48156165552721,-12.141027750518285,5.323004739255981,13.256656225949165,1.18,45,GOOD,29.9
4.51505016722408,136,-0.3459782383215151,-0.1977794091171432,9.86632332636444,-10.379347149645453,-5.9333822735142965,11.955579135136318,-22.47273026966128,-8.670253979888072,24.087276928883334,1.18,45,GOOD,29.9
4.548494983277592,137,-0.3838116371943192,-0.20635798360698643,9.487774926435936,-11.514349115829576,-6.190739508209593,13.073082697654463,-7.4672104152977425,2.209716003046842,7.787302241498811,1.18,45,GOOD,29.9
4.581939799331104,138,-0.36257203924439896,-0.19286892911037246,9.001874411436695,-10.877161177331969,-5.786067873311174,12.32035781591677,13.877407747723556,22.488930930496732,26.426018621677205,1.18,45,GOOD,29.9
4.615384615384615,139,-0.35297295331048906,-0.15638258153921591,8.673645069745184,-10.589188599314673,-4.691477446176478,11.58192021298016,-33.77685893476077,36.91482087737909,50.03578919041561,1.18,45,GOOD,29.9
4.648829431438127,140,-0.43763172576608955,-0.1108359938273078,8.231137232044667,-13.128951772982687,-3.325079814819234,13.54346818330606,-11.152678732061059,0.4634841908994103,11.16230533965904,1.18,45,GOOD,29.9
4.682274247491638,141,-0.37775668382618033,-0.15535261667055056,7.7759779445645805,-11.33270051478541,-4.660578500116517,12.253615503742797,21.497973055765094,-48.91951791035744,53.43483955331189,1.18,45,GOOD,29.9
4.7157190635451505,142,-0.38985845230883376,-0.2195460336281021,7.414813690631449,-11.695753569265014,-6.586381008843063,13.422781617333417,-26.442897162380152,0.2552771104193896,26.444129343642917,1.18,45,GOOD,29.9
4.749163879598662,143,-0.43651867752035844,-0.15478533420295193,6.892633007048698,-13.095560325610753,-4.643560026088558,13.894471920789146,-11.894440026849926,35.045116323576146,37.00861901888955,1.18,45,GOOD,29.9
4.782608695652174,144,-0.4162905412573892,-0.14166799735348845,6.488563939276561,-12.488716237721675,-4.250039920604654,13.192076128989942,14.36072495340186,-7.805032738424598,16.344692020198444,1.18,45,GOOD,29.9
4.816053511705685,145,-0.40460595540168764,-0.17212985139945103,6.013263678773382,-12.13817866205063,-5.163895541983531,13.190951383443826,21.718945058759243,12.951775694839826,25.287567461399806,1.18,45,GOOD,29.9
4.849498327759197,146,-0.36802621890459086,-0.11288627358717773,5.610466340321763,-11.040786567137726,-3.386588207615332,11.548504132962332,6.722986515882443,18.22673262212986,19.42710296908291,1.18,45,GOOD,29.9
4.882943143812708,147,-0.3896659853663933,-0.13162600112805134,5.244327272695734,-11.6899795609918,-3.9487800338415404,12.338901324351031,6.915426078896303,-2.1322307342275493,7.23667919398557,1.18,45,GOOD,29.9
4.916387959866221,148,-0.3526586053959324,-0.1176245641076834,4.7880291761089335,-10.579758161877972,-3.528736923230502,11.152724646345119,37.60375012059629,19.340623949073063,42.285952252157024,1.18,45,GOOD,29.9
4.949832775919732,149,-0.3061020962095127,-0.08864683679677787,4.5011836290506,-9.18306288628538,-2.659405103903336,9.560391178196586,7.356436511059821,-1.1050397217803098,7.43896974909606,1.18,45,GOOD,29.9
4.983277591973244,150,-0.33631096870468835,-0.12008020793386187,4.152220671212762,-10.089329061140651,-3.602406238015856,10.713164406825504,-4.66920194749294,-7.073980458709794,8.476004150345839,1.18,45,GOOD,29.9
5.016722408026756,151,-0.31647810053727476,-0.10436679337168853,3.7870455880774667,-9.494343016118243,-3.131003801150656,9.9972863373284,11.635497815557274,10.998870203234878,16.01124464754212,1.18,45,GOOD,29.9
5.050167224080267,152,-0.3104543068923389,-0.09563827414889547,3.486316428515476,-9.313629206770166,-2.8691482244668642,9.745547728843341,-4.397091631267402,-3.6271169960128113,5.700034431170291,1.18,45,GOOD,29.9
5.083612040133779,153,-0.32624941527342455,-0.1124270533628281,3.1387386720216597,-9.787482458202737,-3.372811600884843,10.352326838189068,30.555614053089695,6.6829657497828014,31.277908839533094,1.18,45,GOOD,29.9
5.117056856187291,154,-0.2425529423299173,-0.08078723914937813,2.7966095305094423,-7.27658826989752,-2.423617174481344,7.669593017758577,39.870559678694796,24.015476821123492,46.54465228184956,1.18,45,GOOD,29.9
5.150501672240803,155,-0.23764817154299167,-0.05905932709366479,2.6281761744291052,-7.129445146289751,-1.7717798128099438,7.3463046355998145,0.0409235163074495,-15.017212825719126,15.017268586102134,1.18,45,GOOD,29.9
5.183946488294314,156,-0.24246200118256744,-0.11415882320653176,2.3117476048346783,-7.273860035477023,-3.4247646961959526,8.039779414885707,18.686657251483513,-9.537474716101958,20.97986137215176,1.18,45,GOOD,29.9
5.217391304347826,157,-0.196122266539695,-0.08025371535166914,2.0933849683430137,-5.88366799619085,-2.4076114605500742,6.357211812923375,17.077381983945532,29.791186373460235,34.338779258497674,1.18,45,GOOD,29.9
5.250836120401337,158,-0.20451226344046625,-0.04795618682106456,1.8879640092153043,-6.135367903213988,-1.438685604631937,6.301789870882999,-3.046732717061902,6.809115933473238,7.459667555909882,1.18,45,GOOD,29.9
5.2842809364548495,159,-0.20289278368872143,-0.0651223466106175,1.6780336460933056,-6.086783510661643,-1.953670398318525,6.392633379987354,23.081163294352823,-1.219606379583661,23.113362774414743,1.18,45,GOOD,29.9
5.317725752508361,160,-0.15322078945301554,-0.05066642322013937,1.4640698102117957,-4.596623683590466,-1.519992696604181,4.841417879740896,33.38629392405334,-5.192788901879863,33.78771490590578,1.18,45,GOOD,29.9
5.351170568561873,161,-0.12870101941304735,-0.07666187750368386,1.3565354392431106,-3.8610305823914204,-2.299856325110516,4.494095712633708,-2.002303759668491,-2.2709674560107365,3.0276250646740346,1.18,45,GOOD,29.9
5.384615384615384,162,-0.15767035336338997,-0.05571301756682989,1.1666983372995436,-4.730110600901699,-1.6713905270048968,5.016721298868847,1.7638629078639223,14.15906139892137,14.268504899118316,1.18,45,GOOD,29.9
5.418060200668896,163,-0.12478132406223863,-0.045197296617191934,1.0234412550646523,-3.743439721867159,-1.355918898515758,3.981439062776807,26.44102347223389,-1.3782304981076487,26.47691903460706,1.18,45,GOOD,29.9
5.4515050167224075,164,-0.09891252342509244,-0.05877575200706911,0.9017463803432086,-2.967375702752773,-1.7632725602120733,3.451731258786575,-1.2497222661256968,4.447105305486297,4.619366984829709,1.18,45,GOOD,29.9
5.48494983277592,165,-0.12755848465362907,-0.035314840382777934,0.7946031622755276,-3.826754539608872,-1.0594452114833381,3.970702011301287,-2.887710681910849,8.667930520145894,9.136295336978698,1.18,45,GOOD,29.9
5.518394648829431,166,-0.10532965827378321,-0.03951368418452268,0.640988734269734,-3.159889748213496,-1.1854105255356804,3.3749224190958125,28.00320534082216,12.462114683335349,30.651000175212115,1.18,45,GOOD,29.9
5.551839464882943,167,-0.06532913945180205,-0.007621252197588274,0.5701281910237852,-1.9598741835540614,-0.22863756592764822,1.9731654649103858,22.135023311575043,17.63319035070831,28.299976306496855,1.18,45,GOOD,29.9
5.585284280936454,168,-0.05614071758139422,-0.0003288167385042118,0.519922539048693,-1.6842215274418266,-0.009864502155126353,1.6842504154374576,6.419480169849241,-9.944049362662556,11.836124508391977,1.18,45,GOOD,29.9
5.618729096989966,169,-0.051063627963248176,-0.02971913967017173,0.4705904309682254,-1.5319088388974453,-0.8915741901051519,1.772469809941421,-10.466441965549631,-15.488122993428235,18.6930030032036,1.18,45,GOOD,29.9
5.652173913043478,170,-0.07939947750483785,-0.034746867835011394,0.40186707127793325,-2.3819843251451354,-1.042406035050342,2.6000883960255083,-5.2063330563480505,5.697659038956997,7.718110028875645,1.18,45,GOOD,29.9
5.68561872909699,171,-0.06263325697735496,-0.01705767513915618,0.29945405524055435,-1.8789977093206487,-0.5117302541746854,1.94743427223358,13.626892025774934,8.660386463389395,16.146036045339017,1.18,45,GOOD,29.9
5.719063545150502,172,-0.049117495225337995,-0.015501564583034963,0.28103656559549867,-1.4735248567601398,-0.4650469374910489,1.545168003020964,19.833043434561528,2.114566297580714,19.94545067187173,1.18,45,GOOD,29.9
5.752508361204013,173,-0.018559827122773778,-0.01235863892231015,0.20366294801080956,-0.5567948136832134,-0.3707591676693045,0.6689415706587233,21.1176424036282,-0.42716898608024356,21.121962362199792,1.18,45,GOOD,29.9
5.785953177257525,174,-0.0021894009950531035,-0.016450828996546617,0.23688707752231475,-0.0656820298515931,-0.4935248698963985,0.4978764166454188,-16.183796606148235,-16.8346914223955,23.352132833564728,1.18,45,GOOD,29.9
5.8193979933110365,175,-0.05452381958088096,-0.04976906430541127,0.17888495606863905,-1.635714587426429,-1.493071929162338,2.214684175491431,-13.846870991552487,1.8211616160526676,13.966118497581256,1.18,45,GOOD,29.9
5.852842809364549,176,-0.0329602254207253,-0.012403803183096244,0.08924223728039712,-0.9888067626217589,-0.3721140954928873,1.056507318418104,18.942848991680098,19.769585308306272,27.380066310803464,1.18,45,GOOD,29.9
5.88628762541806,177,-0.012428599599369636,-0.005836652509175103,0.11322373259766005,-0.3728579879810891,-0.17509957527525308,0.4119258919549486,8.994696887491026,1.248652849790919,9.08095292560928,1.18,45,GOOD,29.9
5.919732441471572,178,-0.012972010115189683,-0.009629019072449757,0.06359728354008753,-0.3891603034556905,-0.2888705721734927,0.48465652709270945,-0.7756653162327485,8.59888406064109,8.633797760612294,1.18,45,GOOD,29.9
5.953177257525083,179,-0.014152300302109077,0.013271978736693987,0.08173560071715105,-0.42456900906327233,0.39815936210081965,0.5820564586751878,1.2024120462219643,-6.643478667622528,6.751414928446873,1.18,45,GOOD,29.9
5.986622073578595,180,-0.010299983345807541,-0.02439230500049982,0.07639971692466868,-0.30899950037422624,-0.7317691500149945,0.7943341741012966,8.773274291785576,-13.424783840423972,16.037305352240892,1.18,45,GOOD,29.9
6.020066889632107,181,0.005343864790747758,-0.01656087424202595,0.033652472408005105,0.16031594372243274,-0.4968262272607785,0.5220512445208736,-4.82471658297225,13.469537771619027,14.307562262212214,1.18,45,GOOD,29.9
6.053511705685619,182,-0.02102157575241254,0.005540001158653576,0.04817079393482413,-0.6306472725723762,0.16620003475960726,0.6521797558626545,1.3249067928461755,3.34465850980044,3.597515608987741,1.18,45,GOOD,29.9
6.08695652173913,183,0.008288102108183704,-0.009128299775802751,0.029248719015636807,0.2486430632455111,-0.2738489932740825,0.36988733962835185,3.8841565978189667,-4.7672366415032625,6.149245292917816,1.18,45,GOOD,29.9
6.120401337792642,184,-0.01239011664614817,-0.005053858044687009,0.04638926181763765,-0.3717034993844451,-0.15161574134061026,0.40143595314434033,-16.09170977373419,3.95542406968953,16.570712205972672,1.18,45,GOOD,29.9
6.153846153846153,185,-0.02747125294455894,-0.00033846850982601796,0.04046905331011655,-0.8241375883367682,-0.010154055294780539,0.8242001391339812,17.421520044443206,0.6981724076028479,17.435504161614436,1.18,45,GOOD,29.9
6.187290969899665,186,0.026324372341503397,-0.003502363805569569,0.02786650508049388,0.789731170245102,-0.10507091416708707,0.7966901645311091,13.718653428180497,-9.096071792909266,16.46025437058274,1.18,45,GOOD,29.9
6.220735785953177,187,0.003014643562508831,-0.020551961382957718,0.018330940480499002,0.09043930687526494,-0.6165588414887315,0.623156539920753,-19.936239430608836,6.598503894592373,20.999854672866505,1.18,45,GOOD,29.9
6.254180602006689,188,-0.017978381948738454,0.01116097818241348,0.020024954730268447,-0.5393514584621536,0.3348293454724044,0.6348312266537705,7.17980481912334,24.221671899672696,25.263392227808612,1.18,45,GOOD,29.9
6.2876254180602,189,0.018969765382782916,0.033273976171870494,0.03771113980856462,0.5690929614834875,0.9982192851561148,1.149046796291444,16.554266150940048,-0.03944199848820801,16.554313137892617,1.18,45,GOOD,29.9
6.321070234113712,190,0.01880887616446165,0.011073329296884128,0.0565997030251329,0.5642662849338496,0.33219987890652386,0.6547924861042294,-21.556589051051493,-34.65823617205371,40.815191608931165,1.18,45,GOOD,29.9
6.354515050167223,191,-0.02893376584177595,-0.04374432643269332,0.056669907506822215,-0.8680129752532786,-1.3123297929807995,1.5734217523452119,-9.440673727758764,-5.897210379297182,11.13119089278793,1.18,45,GOOD,29.9
6.3879598662207355,192,-0.002170398786113377,-0.0020315826571096103,0.04846170342839962,-0.06511196358340131,-0.06094747971328831,0.08918611486710175,13.056071348683966,35.207360571136846,37.5502228681531,1.18,45,GOOD,29.9
6.421404682274247,193,7.9726044188419e-05,0.034494252614277444,0.051553838897759156,0.00239178132565257,1.0348275784283234,1.0348303424686278,-3.6669107271305372,-9.367164230270875,10.059324032836956,1.18,45,GOOD,29.9
6.454849498327759,194,-0.010319089290847905,-0.022847503168822666,0.041909527216011794,-0.30957267872543714,-0.68542509506468,0.752092284468913,0.4712604260688511,-30.15574349958356,30.159425598009236,1.18,45,GOOD,29.9
6.488294314381271,195,0.0011269714354525326,-0.032518510718130465,0.008703796008463105,0.03380914306357598,-0.975555321543914,0.9761409957313251,15.723033280836761,1.4496455440139278,15.789719685718927,1.18,45,GOOD,29.9
6.521739130434782,196,0.02462098466656712,-0.01962606862656949,0.04385554488077062,0.7386295399970136,-0.5887820587970848,0.9445834585241972,2.2960343934830854,31.494728681475642,31.57831073151035,1.18,45,GOOD,29.9
6.555183946488294,197,0.006229270087637167,0.03746977524070429,0.05441500394590027,0.186878102629115,1.1240932572211286,1.139521424183093,-21.567308185052227,21.88426571149271,30.725719976596746,1.18,45,GOOD,29.9
6.588628762541806,198,-0.023306366855771164,0.029005632954525417,0.042632569232237016,-0.699191005673135,0.8701689886357625,1.1162715311238551,-3.6885046871102256,-31.729353116897112,31.94302609402532,1.18,45,GOOD,29.9
6.622073578595318,199,-0.001967406994830001,-0.0330398983524004,0.023487746498443804,-0.05902220984490003,-0.991196950572012,0.9929526756488604,6.801612490543666,-14.340682433081822,15.871896708270917,1.18,45,GOOD,29.9
6.655518394648829,200,-0.008191672432340797,-0.0028625502301008535,0.03166548601775416,-0.24575017297022392,-0.0858765069030256,0.2603227265391179,-3.7346433750181713,13.698479935264377,14.19844757976758,1.18,45,GOOD,29.9
6.688963210702341,201,-0.010266614494870381,-0.00259883182959067,0.02745731102269493,-0.30799843484611145,-0.0779649548877201,0.31771303098598047,8.035181482721946,-5.884656837199688,9.95958470780176,1.18,45,GOOD,29.9
6.722408026755852,202,0.009664286418152415,-0.01593956542387794,0.049682640879213515,0.2899285925445724,-0.47818696271633815,0.5592149498062022,4.34590841278579,15.003603190785888,15.620340221611142,1.18,45,GOOD,29.9
6.7558528428093645,203,-0.0006090402442352934,0.030742508594377972,0.014798001218416986,-0.0182712073270588,0.9222752578313391,0.9224562256416569,-9.018384339717928,6.1990921359240785,10.943491189220437,1.18,45,GOOD,29.9
6.789297658862876,204,-0.010376567670109646,-0.0021638051218244303,0.050196130390324285,-0.3112970301032894,-0.06491415365473291,0.3179932205186748,5.396884709734725,-14.168810119327054,15.161845031780043,1.18,45,GOOD,29.9
6.822742474916388,205,0.011384036888508541,-0.0007437361152377048,0.029673297542088875,0.34152110665525626,-0.022312083457131145,0.34224917145148637,13.336796698267129,-1.086783818669344,13.381003147725156,1.18,45,GOOD,29.9
6.856187290969899,206,0.019260758326039525,-0.004578880274422973,0.033619939894936265,0.5778227497811858,-0.13736640823268917,0.5939264771631592,7.8680268094090025,-7.194854871807119,10.661696980309722,1.18,45,GOOD,29.9
6.889632107023411,207,0.028868540909417435,-0.016732302497031303,0.03223041974933614,0.8660562272825231,-0.5019690749109391,1.0010126577530283,-17.381930855810072,18.994481219974837,25.747268536529056,1.18,45,GOOD,29.9
6.9230769230769225,208,-0.01936575468687174,0.03763107799218778,0.040803312138450495,-0.5809726406061522,1.1289323397656335,1.2696524866677468,-19.635810855948726,18.751418448665447,27.15107294026416,1.18,45,GOOD,29.9
6.956521739130435,209,-0.014766594326024184,0.0249375162777808,0.05244317591055156,-0.44299782978072555,0.7481254883334241,0.8694474242210146,17.61792832110834,-27.087544608631415,32.31294587703678,1.18,45,GOOD,29.9
6.989966555183946,210,0.01978519713781346,-0.022563465582548695,0.046622408726942385,0.5935559141344038,-0.6769039674764609,0.9002819582715746,1.658034120130072,-25.058084615122148,25.11287880196408,1.18,45,GOOD,29.9
7.023411371237458,211,-0.01108207405906847,-0.03074711620026841,0.01667284817135143,-0.3324622217720541,-0.9224134860080523,0.9804987343567241,-8.045194796885335,5.509364710451592,9.750808111772082,1.18,45,GOOD,29.9
7.056856187290969,212,0.0019069864780682684,-0.01032043289265627,0.019659639142610975,0.05720959434204805,-0.30961298677968807,0.31485415555050406,-1.9683110518554825,15.933700359224122,16.05481409217794,1.18,45,GOOD,29.9
7.090301003344481,213,-0.015456098618747319,0.0046611068202296385,0.027613022877938917,-0.4636829585624196,0.13983320460688917,0.48430900381040887,0.15684519358010723,16.384236486225845,16.384987203270054,1.18,45,GOOD,29.9
7.123745819397993,214,0.002255531352690729,0.026088981521178944,0.04262036142579287,0.06766594058072187,0.7826694456353683,0.7855890405586426,21.511798320420887,-1.1595385035625572,21.543026633221874,1.18,45,GOOD,29.9
7.157190635451505,215,0.032347897648854644,0.0020843545900906227,0.041753191784563576,0.9704369294656393,0.06253063770271869,0.9724494407022952,-0.6894298540242623,-18.910607873466244,18.923171078538168,1.18,45,GOOD,29.9
7.190635451505017,216,0.0007234650104145906,-0.01593459153096826,0.022793133664380225,0.021703950312437718,-0.4780377459290478,0.4785301954862301,-20.950015358148942,-5.9232092531802225,21.771255162797488,1.18,45,GOOD,29.9
7.224080267558528,217,-0.014207692035920776,-0.01107833263919876,0.026377489448865154,-0.4262307610776233,-0.3323499791759628,0.5404897504551524,-9.389758126835867,12.887335393738978,15.94524917432141,1.18,45,GOOD,29.9
7.25752508361204,218,-0.020142664160331777,0.01270393156622947,0.02552079646291642,-0.6042799248099533,0.3811179469868841,0.7144264252138356,9.141808680871709,13.430625222700689,16.246672269431215,1.18,45,GOOD,29.9
7.290969899665551,219,0.006107438366016352,0.018767501189024993,0.030458567082109374,0.18322315098049058,0.5630250356707498,0.5920877585690053,11.629910789719379,-6.803135785673449,13.4735845822536,1.18,45,GOOD,29.9
7.3244147157190636,220,0.005701582039044618,-0.0024141479574893033,0.014216315868500579,0.17104746117133857,-0.0724244387246791,0.1857485754931794,-4.671727448751975,-3.194660375560171,5.659584107564521,1.18,45,GOOD,29.9
7.357859531772575,221,-0.004274178186765813,0.011668255910002392,0.022389119342520015,-0.12822534560297438,0.35004767730007175,0.3727936636239642,0.049656676740724576,15.280385258049199,15.28046594250163,1.18,45,GOOD,29.9
7.391304347826087,222,0.005811930209579562,0.03154226372706447,0.03607663426600844,0.17435790628738687,0.9462679118119341,0.9621972980682494,-7.838925427088999,-22.63878579156266,23.95753271870294,1.18,45,GOOD,29.9
7.424749163879598,223,-0.02169401246918581,-0.03864015696013685,0.08580748996771126,-0.6508203740755744,-1.1592047088041055,1.3294069039332848,-6.453960908476021,-32.30108181798839,32.93954307546656,1.18,45,GOOD,29.9
7.45819397993311,224,-0.008530205142589373,-0.040237918090687504,0.061428866842502663,-0.2559061542776812,-1.2071375427206252,1.2339647510536036,16.81421788482869,26.27009482077756,31.190315884439787,1.18,45,GOOD,29.9
7.4916387959866215,225,0.01567091616376683,0.019737831530479952,0.009350635686020918,0.4701274849130049,0.5921349459143986,0.7560711912536249,-0.9990204112184495,2.8968862712117938,3.064309359442426,1.18,45,GOOD,29.9
7.525083612040134,226,-0.010750250500852595,-0.03380039304355019,0.014275133408625917,-0.32250751502557784,-1.0140117913065056,1.0640634427310252,-2.3691042491556535,-9.53177683198057,9.821783163868409,1.18,45,GOOD,29.9
7.558528428093645,227,0.010406240054532043,-0.0014438947628102015,0.0693354603098339,0.3121872016359613,-0.043316842884306046,0.31517804133974187,21.562667275089154,27.814860289040936,35.19396358631786,1.18,45,GOOD,29.9
7.591973244147157,228,0.03716678788823441,0.028010407598763002,0.008130559334389253,1.1150036366470324,0.8403122279628901,1.3961940231214511,-3.7809030082520785,-2.1922729338349027,4.370502050592667,1.18,45,GOOD,29.9
7.625418060200668,229,0.002004233369527426,-0.0063156123935544295,0.04534141960487975,0.06012700108582277,-0.1894683718066329,0.19878007992409857,-15.83934499207624,-2.8214814842035847,16.088679484150163,1.18,45,GOOD,29.9
7.65886287625418,230,0.0019682434613983203,0.02174044874497726,0.02032757937660635,0.05904730384194961,0.6522134623493178,0.6548808934155038,-9.456308142476917,13.04254032999177,16.109923089355114,1.18,45,GOOD,29.9
7.692307692307692,231,-0.01900978472486572,0.02266781056198284,0.06107217534831088,-0.5702935417459717,0.6800343168594851,0.8875141665707151,-12.052876339436777,-11.239739061470628,16.480399334473166,1.18,45,GOOD,29.9
7.725752508361204,232,-0.02481592618179452,-0.0032367491694019115,0.03916772720080251,-0.7444777854538356,-0.09710247508205734,0.7507836330803361,19.37197735555922,-17.03324466651661,25.795443987916077,1.18,45,GOOD,29.9
7.759197324414715,233,0.024039053843043653,-0.015183844252498519,0.03029082533883079,0.7211716152913096,-0.45551532757495555,0.8529845909262345,12.15443433919777,-9.498655017950346,15.42578105821236,1.18,45,GOOD,29.9
7.792642140468227,234,0.0021939279053116347,-0.024344871431513794,0.02084891096498328,0.06581783715934904,-0.7303461429454138,0.733305854472455,-27.979446833673187,4.888176038069621,28.403234148552567,1.18,45,GOOD,29.9
7.826086956521738,235,-0.03813749467623009,-0.004321230834566027,0.01874672022249401,-1.1441248402869026,-0.12963692503698082,1.1514457792247859,0.9761855276201478,-2.4786779191389354,2.6639786806883325,1.18,45,GOOD,29.9
7.8595317725752505,236,0.004363229077800851,-0.02985304458515587,0.05663326727670402,0.13089687233402555,-0.8955913375546761,0.9051065324533925,29.010892036871667,4.571263089681195,29.36883216966765,1.18,45,GOOD,29.9
7.892976588628763,237,0.026331154294595833,0.005837131586947739,0.07907305709447059,0.789934628837875,0.17511394760843219,0.8091116192987468,-13.389129259406403,28.907684401092027,31.857856170154196,1.18,45,GOOD,29.9
7.926421404682274,238,-0.025390391498657818,0.034386254083937515,0.0029768494993402113,-0.7617117449597346,1.0315876225181255,1.2823329541668196,-12.665245629200928,-14.44321689653117,19.20976213200561,1.18,45,GOOD,29.9
7.959866220735786,239,-0.0018138359925173402,-0.026258905960899307,0.039639646234273546,-0.05441507977552021,-0.7877671788269792,0.7896443053324668,14.408944044021794,-19.723304114476573,24.425936904362125,1.18,45,GOOD,29.9
7.993311036789297,240,0.006629484154723945,-0.009443310614899305,0.05223615178184817,0.19888452464171835,-0.28329931844697914,0.34614095102210196,-0.9541404337355588,31.662927236799007,31.67730015594949,1.18,45,GOOD,29.9
8.02675585284281,241,-0.0039341480674852485,0.0441031545653207,0.03788463711814761,-0.11802444202455746,1.323094636959621,1.3283482929060886,4.704348597067857,14.899880831621603,15.624895024263656,1.18,45,GOOD,29.9
8.060200668896321,242,0.01708359214820807,0.023667535677593145,0.03912231664512243,0.5125077644462421,0.7100260703277943,0.8756718729997068,7.474940109241408,-29.895202142598826,30.815545440306447,1.18,45,GOOD,29.9
8.093645484949832,243,0.012676829953051213,-0.022330627973787803,0.021076834601189445,0.3803048985915364,-0.669918839213634,0.7703395790338581,-9.864087287157563,-13.357279846615688,16.604732545556676,1.18,45,GOOD,29.9
8.127090301003344,244,-0.0048366018232531794,-0.006015308425997275,0.013739034086174069,-0.14509805469759537,-0.18045925277991826,0.2315577409436204,-10.798200197957598,9.945504641744629,14.680401564471438,1.18,45,GOOD,29.9
8.160535117056856,245,-0.01131917048685456,-0.00022950654768862447,0.007114972897353272,-0.33957511460563683,-0.006885196430658734,0.3396449092645437,3.254630626961135,-3.7159106036259812,4.939697574962807,1.18,45,GOOD,29.9
8.193979933110368,246,0.0023959106811048984,-0.014272887545166122,0.014585752119270504,0.07187732043314696,-0.42818662635498367,0.4341775399325853,9.242659363361298,-4.70548807970641,10.371517255223047,1.18,45,GOOD,29.9
8.227424749163879,247,0.009220072542837215,-0.010686146724813978,0.02184602558205519,0.27660217628511646,-0.3205844017444194,0.4234183776921946,0.5206022898878572,15.573541712942664,15.582240796143589,1.18,45,GOOD,29.9
8.26086956521739,248,0.00355280465863347,0.0203349829280398,0.030863760793670206,0.1065841397590041,0.610049487841194,0.6192903652273867,-13.037304414604215,11.159710400891573,17.16130655372213,1.18,45,GOOD,29.9
8.294314381270903,249,-0.019751715045172147,0.014113209721611739,0.022189452494409227,-0.5925514513551644,0.4233962916483522,0.7282730547567227,4.11725557738206,-19.07802504685488,19.51724450781682,1.18,45,GOOD,29.9
8.327759197324415,250,0.01270226149726027,-0.022060628287193264,0.03279391324762519,0.3810678449178081,-0.661818848615798,0.7636863824983677,10.192576405359583,-8.568914278551825,13.315964317024216,1.18,45,GOOD,29.9
8.361204013377925,251,0.0028984547445158135,-0.004928822008503426,0.04422461340391019,0.08695364233547441,-0.14786466025510278,0.1715368580444523,-15.123939486662882,15.959672233134318,21.987375545647083,1.18,45,GOOD,29.9
8.394648829431437,252,-0.020906492917546135,0.013405310008660775,0.029391246929452174,-0.627194787526384,0.40215930025982327,0.7450539606536809,9.362535886005581,12.362988746591842,15.508080763431007,1.18,45,GOOD,29.9
8.42809364548495,253,0.02370409004675044,0.02254448631725622,0.005607507585926249,0.7111227014025132,0.6763345895176867,0.9813887982996676,8.499936373054421,-10.923629511588775,13.84104765010318,1.18,45,GOOD,29.9
8.461538461538462,254,-0.002017745421869643,-0.010869422239314279,0.039123869753836166,-0.06053236265608929,-0.32608266717942835,0.3316535432700488,-24.48402522275274,-16.12692926254162,29.318003658970603,1.18,45,GOOD,29.9
8.494983277591972,255,-0.030704854892700095,-0.013293134266169598,0.021929261900905772,-0.9211456467810029,-0.39879402798508795,1.0037658986736713,18.918151870494885,5.0216039818698865,19.573271998974533,1.18,45,GOOD,29.9
8.528428093645484,256,0.04002259206811899,0.00028969772039658115,0.041498163294198864,1.2006777620435698,0.008690931611897434,1.2007092156547472,21.40273455634148,8.854972677037628,23.16220170019026,1.18,45,GOOD,29.9
8.561872909698996,257,0.01685677745472541,0.0063845827939140185,0.07330789657547646,0.5057033236417623,0.19153748381742056,0.5407610001187526,-33.00488654875256,6.186819922649381,33.57974503850973,1.18,45,GOOD,29.9
8.595317725752508,258,-0.03332160026244224,0.014038186437395204,0.02082287509846878,-0.9996480078732672,0.4211455931218561,1.0847394849690646,-15.381661402859962,-8.66157526520649,17.65271632319142,1.18,45,GOOD,29.9
8.62876254180602,259,-0.017324692329407837,-0.012863362239878185,0.009705687744755461,-0.5197407698822352,-0.38590086719634553,0.6473406732012673,11.564230439165982,-5.203780062826383,12.681117955149002,1.18,45,GOOD,29.9
8.66220735785953,260,-0.007623310397628948,0.0024742307422254643,0.04233640320224953,-0.22869931192886844,0.07422692226676393,0.24044336394655205,18.066687167811747,6.933748477569917,19.35153878041167,1.18,45,GOOD,29.9
8.695652173913043,261,0.022823501376840485,0.002544967710277187,0.01771109826697409,0.6847050413052146,0.0763490313083156,0.6889485961742674,13.664132062497698,-11.125386882826465,17.620520375798915,1.18,45,GOOD,29.9
8.729096989966555,262,0.0227414275190326,-0.022248851219611124,0.003927009452159556,0.682242825570978,-0.6674655365883337,0.9544451349219736,-5.725422988925196,-8.478708235916313,10.230785001743916,1.18,45,GOOD,29.9
8.762541806020067,263,0.01010033917922894,-0.01629660614731462,0.04607927399033465,0.3030101753768682,-0.4888981844194386,0.5751839715347984,-19.272317595529554,12.769369455087313,23.118802343189728,1.18,45,GOOD,29.9
8.795986622073578,264,-0.020085944915477518,0.006127525347249571,0.041356137246869915,-0.6025783474643256,0.18382576041748713,0.6299941071358564,-9.920274549497107,28.84506646183309,30.50327369848961,1.18,45,GOOD,29.9
8.82943143812709,265,-0.011944715375209075,0.047803541545647796,0.01939372938427435,-0.35834146125627225,1.4341062463694338,1.4781980005165438,14.620153341441206,-2.514973187838547,14.834890423012947,1.18,45,GOOD,29.9
8.862876254180602,266,0.012403284732169607,0.0005386960409416892,0.0619042911608667,0.3720985419650882,0.016160881228250677,0.37244932408935594,4.83686255016584,-35.620327342573454,35.94722464003699,1.18,45,GOOD,29.9
8.896321070234114,267,-0.0011961319303960968,-0.03135274143784877,0.02574059128229203,-0.035883957911882904,-0.940582243135463,0.9412664949615285,-12.981240526255796,-2.7723377865499295,13.273976887249669,1.18,45,GOOD,29.9
8.929765886287624,268,-0.016443916437287716,-0.0056220545958359305,0.002448827955209931,-0.4933174931186315,-0.16866163787507793,0.5213529486898055,3.308075349835015,19.418105114277715,19.697872188369086,1.18,45,GOOD,29.9
8.963210702341136,269,0.006155146624792825,0.011798603260546152,0.03186387624635804,0.18465439874378475,0.35395809781638454,0.3992287339173145,6.138059362978554,10.833249622959842,12.451307968916689,1.18,45,GOOD,29.9
8.996655518394649,270,-0.0028037845195575967,0.01845183345518594,0.024891387274228637,-0.0841135355867279,0.5535550036555782,0.5599091256097072,-11.5308397165183,-10.560970179758609,15.636315285443256,1.18,45,GOOD,29.9
9.03010033444816,271,-0.019468941634136726,-0.01167021936113965,0.021207520314709884,-0.5840682490241018,-0.3501065808341895,0.6809628018192235,6.106375606804559,-24.15243974328557,24.91240993168702,1.18,45,GOOD,29.9
9.063545150501671,272,0.010765939051119201,-0.03522025486322644,0.028946748912974614,0.32297817153357605,-1.0566076458967932,1.1048685970081398,22.11575084998306,0.954529525235811,22.136340308937097,1.18,45,GOOD,29.9
9.096989966555183,273,0.02967717136582562,-0.009549042638393403,0.06222596996394148,0.8903151409747686,-0.2864712791518021,0.9352683272878387,-9.802794932366776,44.00716639077278,45.08575697746681,1.18,45,GOOD,29.9
9.130434782608695,274,-0.011018049687473636,0.06257344822737974,0.036204465702576134,-0.33054149062420907,1.8772034468213923,1.9060824897632815,-13.159293404638523,4.824988447618005,14.015973616877643,1.18,45,GOOD,29.9
9.163879598662207,275,0.00043429713329556745,0.0011731539118688319,0.06606644468393216,0.013028913998867023,0.03519461735606496,0.03752883812256519,24.528696721272915,-37.3520405561394,44.68592503855847,1.18,45,GOOD,29.9
9.197324414715718,276,0.0434901652486884,-0.02043108634181892,0.03574465827049744,1.304704957460652,-0.6129325902545677,1.4415066375908838,-16.437229941144214,14.459880925987402,21.89225170081374,1.18,45,GOOD,29.9
9.23076923076923,277,-0.03609288051369157,0.033306222636285285,0.07048855686223575,-1.0827864154107472,0.9991866790885585,1.4733636486170265,-30.593657576214422,0.8918060020138213,30.606652901548873,1.18,45,GOOD,29.9
9.264214046822742,278,-0.02449574047623253,-0.01844929522623265,0.06407231242604455,-0.7348722142869759,-0.5534788567869796,0.9199869652561741,28.42137975947901,-26.793607925372164,39.05985474999989,1.18,45,GOOD,29.9
9.297658862876254,279,0.02706574117403956,-0.026235128308986187,0.0232666285945347,0.8119722352211869,-0.7870538492695857,1.1308194694203677,11.68954045647658,20.754805812482132,23.82031318848358,1.18,45,GOOD,29.9
9.331103678929766,280,0.0014810160937154277,0.027672495468172083,0.013597883789650295,0.044430482811462835,0.8301748640451625,0.8313629608632224,-25.28242326756188,23.537336009237194,34.54283011989446,1.18,45,GOOD,29.9
9.364548494983277,281,-0.029117421642764617,0.026070062822652017,0.04561145814476672,-0.8735226492829385,0.7821018846795605,1.172486749106191,-1.1482476882115515,-21.5669901317682,21.597535417201428,1.18,45,GOOD,29.9
9.397993311036789,282,-0.0010706454356435753,-0.020254149269090586,0.06652321121539356,-0.03211936306930726,-0.6076244780727176,0.6084728094476535,18.131061508694522,-25.852562579499637,31.57673801010815,1.18,45,GOOD,29.9
9.431438127090301,283,0.01117382615433432,-0.03138007624290273,0.018766851135373963,0.33521478463002957,-0.941402287287082,0.9993033665228527,8.252561133143242,14.267764515249581,16.482532254446877,1.18,45,GOOD,29.9
9.464882943143813,284,0.017268379304674737,0.011451994098130708,0.026518076863777915,0.5180513791402421,0.34355982294392123,0.6216193235175089,-1.0159093739957261,15.465839279851199,15.499169541829028,1.18,45,GOOD,29.9
9.498327759197323,285,0.00891624976767715,0.002988455490099935,0.05802744887679733,0.2674874930303145,0.08965366470299806,0.282112279992063,-17.254443323186553,-22.450694011348855,28.31518101627239,1.18,45,GOOD,29.9
9.531772575250836,286,-0.021074828080184273,-0.03843843703820008,0.009170730343672781,-0.6322448424055281,-1.1531531111460025,1.3151029003443402,-8.303540720528185,9.65111708739107,12.73156901296936,1.18,45,GOOD,29.9
9.565217391304348,287,-0.009536062944607702,0.024435382350968978,0.05508516634039408,-0.28608188833823106,0.7330614705290693,0.7869065804842463,6.881273208790484,34.57087420460496,35.249074657991216,1.18,45,GOOD,29.9
9.59866220735786,288,-0.005783109838427641,0.038385727860922064,0.04752093576076668,-0.17349329515282924,1.1515718358276619,1.1645675663242894,15.345155067723631,-17.934410887398677,23.603323450957674,1.18,45,GOOD,29.9
9.63210702341137,289,0.0245642816503337,-0.015418864065472524,0.02283108382434046,0.736928449510011,-0.46256592196417573,0.8700751529953012,-4.026804840735173,-8.265454060496932,9.194176855572957,1.18,45,GOOD,29.9
9.665551839464882,290,-0.014731565040061359,0.02001805217092888,0.027226163195052958,-0.4419469512018408,0.6005415651278664,0.7456321339124472,-20.821079222423457,-7.178048329825178,22.023662679303364,1.18,45,GOOD,29.9
9.698996655518394,291,-0.021704783288385092,-0.03137008257619514,0.06960140718486851,-0.6511434986515527,-0.9411024772858543,1.14440453013336,21.458392974404152,-11.779189423049583,24.47880578190122,1.18,45,GOOD,29.9
9.732441471571907,292,0.03295375268083675,-0.006157924324736861,0.05556296733366176,0.9886125804251026,-0.18473772974210584,1.005725043421435,15.772732906549834,27.022077538676175,31.28852469912232,1.18,45,GOOD,29.9
9.765886287625417,293,0.013345734281725653,0.02867897862086303,0.06207554145829125,0.4003720284517696,0.8603693586258908,0.9489642745798766,-25.557340423029615,-1.1369164419114997,25.582615747700864,1.18,45,GOOD,29.9
9.799331103678929,294,-0.023840337148117948,-0.008684405306762417,0.009797426822586804,-0.7152101144435384,-0.2605321592028725,0.7611849405901632,-6.706480950077228,-17.979673075378003,19.189724610614437,1.18,45,GOOD,29.9
9.832775919732441,295,-0.0015575567184459636,-0.01127585043553253,0.0351642254540045,-0.04672670155337891,-0.3382755130659759,0.3414874922718368,2.727056009871525,-5.727731912948994,6.34379597304254,1.18,45,GOOD,29.9
9.866220735785953,296,-0.01778021268173678,-0.02141269844664907,0.018502245891947728,-0.5334063804521034,-0.6423809533994721,0.8349704521702722,1.6485057274946355,18.529053267996783,18.602241427899084,1.18,45,GOOD,29.9
9.899665551839464,297,0.002105789342653226,0.029899823493349215,0.04818451599996023,0.06317368027959679,0.8969947048004765,0.8992165558530173,22.067454074029765,14.187878283503531,26.234870296933508,1.18,45,GOOD,29.9
9.933110367892976,298,0.03125857414944047,0.010115919961136557,0.04318381248826519,0.9377572244832142,0.3034775988340967,0.9856405354207842,-1.6459174233374225,-17.170933045770276,17.249637266527415,1.18,45,GOOD,29.9
9.966555183946488,299,-0.0015518049314299344,-0.008257805497251396,0.018611461982898318,-0.046554147942898035,-0.24773416491754188,0.25207043689826275,-18.028429227443695,2.198167551698873,18.16194375594991,1.18,45,GOOD,29.9
10.0,300,-0.008804601911545518,0.015000736742689608,0.026399595085716775,-0.26413805734636553,0.45002210228068823,0.5218129989563715,-6.527517282104025,20.932688015946905,21.926830811613748,1.18,45,GOOD,29.9
