timestamp,frame_index,structural_dx_pixels,structural_dy_pixels,structural_displacement_pixels,velocity_x_pixels_s,velocity_y_pixels_s,velocity_magnitude_pixels_s,acceleration_x_pixels_s2,acceleration_y_pixels_s2,acceleration_magnitude_pixels_s2,optical_dominant_frequency_hz,valid_feature_count,tracking_quality,camera_fps
0.0,1,0.082198710911623,-0.025928186554450575,0.04784509661500046,2.46596132734869,-0.7778455966335173,2.5857318190758813,-33.71376596177984,39.815647417830476,52.1718678468258,3.65,44,GOOD,30.0
0.033444816053511704,2,0.044738970954089845,0.018311421687583287,0.050774054851301466,1.3421691286226953,0.5493426506274987,1.4502397448788429,-45.90671701050648,29.73419530153448,54.69505495849255,3.65,44,GOOD,30.0
0.06688963210702341,3,-0.019816215778391405,0.04014780300451493,0.050181475924057826,-0.5944864733517422,1.204434090135448,1.343158830696726,-25.643000390557077,-17.406209983247994,30.992573546109924,3.65,44,GOOD,30.0
0.1003344481605351,4,-0.012245474358259215,-0.0203690449418567,0.04418225050489605,-0.36736423074777647,-0.611071348255701,0.7129969640131336,2.8106240571402115,-30.277616943092916,30.40779004372469,3.65,44,GOOD,30.0
0.13377926421404682,5,-0.013570384540302047,-0.02713579020235821,0.02333033921232052,-0.40711153620906143,-0.8140737060707464,0.91019547451647,-4.292800024026888,14.465848480131276,15.08936394605159,3.65,44,GOOD,30.0
0.16722408026755853,6,-0.021785029967207853,0.011777285013990585,0.03292722061668506,-0.6535508990162356,0.35331855041971755,0.7429419732897182,24.438817518880843,14.286728186627155,28.30841578046578,3.65,44,GOOD,30.0
0.2006688963210702,7,0.04073809883498871,0.00461249465681324,0.02686261916031777,1.2221429650496614,0.1383748397043972,1.2299516345302344,11.499918975697309,4.940925381323494,12.516424412403477,3.65,44,GOOD,30.0
0.23411371237458192,8,0.0037703455343417198,0.02275711919470946,0.05020720551402883,0.1131103660302516,0.6827135758412838,0.6920200730769952,-17.68431140519121,-2.534508087122426,17.86501052671016,3.65,44,GOOD,30.0
0.26755852842809363,9,0.0014396290456749096,-0.0010197455367921507,0.05738746207107844,0.04318887137024729,-0.03059236610376452,0.05292609445313839,-4.268648291737677,-19.766643358687286,20.22230322955551,3.65,44,GOOD,30.0
0.3010033444816053,10,-0.005715539558408674,-0.021168754935706732,0.053165648471696254,-0.17146618675226022,-0.6350626480712019,0.6578033294036815,-15.371319884359636,6.905507318381472,16.8512167605645,3.65,44,GOOD,30.0
0.33444816053511706,11,-0.032718859586235396,0.014325826281833343,0.03164102037405082,-0.9815657875870619,0.4297747884550003,1.071530570797189,13.163460760273907,17.789605722438328,22.130223020726234,3.65,44,GOOD,30.0
0.36789297658862874,12,0.023536595464422227,0.018363702225267328,0.0283867936142301,0.7060978639326668,0.5509110667580198,0.8955876266043062,20.14624606129875,-13.333797119969658,24.15908475085318,3.65,44,GOOD,30.0
0.4013377926421404,13,0.012050576105539602,-0.015304833984765898,0.05213124259147094,0.36151728316618803,-0.45914501954297693,0.5843876239269467,-17.80558281254979,-17.609281445000544,25.042475362947027,3.65,44,GOOD,30.0
0.43478260869565216,14,-0.01603136634124397,-0.020768034319178327,0.01278134745648545,-0.48094099023731907,-0.6230410295753498,0.7870732879629221,-7.771741330216467,10.436346156987526,13.012197524333203,3.65,44,GOOD,30.0
0.46822742474916385,15,-0.005219960183830325,0.00788704636409527,0.015997638719397467,-0.15659880551490976,0.2366113909228581,0.2837395569939907,4.209597378000579,5.783970314036943,7.153671971689083,3.65,44,GOOD,30.0
0.5016722408026756,16,-0.006676705501242683,-0.007914766954651785,0.010796320350249564,-0.2003011650372805,-0.23744300863955356,0.3106440713535267,1.8717724702090848,-14.40344000161046,14.524552181056217,3.65,44,GOOD,30.0
0.5351170568561873,17,-0.0010604658055879148,-0.024120598083927972,0.028775896390064337,-0.03181397416763744,-0.7236179425178392,0.7243169580274162,15.258303251725703,4.594936118832939,15.935157861087498,3.65,44,GOOD,30.0
0.568561872909699,18,0.027230635058147767,0.0022962021983102994,0.0375322901718665,0.816919051744433,0.06888606594930899,0.8198182891257039,1.524397841999764,20.18262906233905,20.240116221224284,3.65,44,GOOD,30.0
0.6020066889632106,19,0.0023270849544115603,0.020729688721269915,0.027207180967968127,0.06981254863234682,0.6218906616380975,0.6257969215162491,-11.245199589703327,-0.6075976601441947,11.26160240502552,3.65,44,GOOD,30.0
0.6354515050167224,20,0.00224130263658482,0.0009459851757676448,0.00549339990987154,0.0672390790975446,0.028379555273029343,0.07298282616739905,-1.4197106304124143,-10.20323817299268,10.301536171315473,3.65,44,GOOD,30.0
0.6688963210702341,21,-0.0008278275576160269,-0.0019441738853804842,0.03148024166040007,-0.024834826728480808,-0.058325216561414525,0.0633924246702204,-7.198120401124992,6.910132383800515,9.978119405516273,3.65,44,GOOD,30.0
0.7023411371237458,22,-0.013754520477026274,0.016301834917546564,0.002176920174098661,-0.4126356143107882,0.48905504752639695,0.6398773239525589,2.20083965425655,-5.704827738421546,6.114634470580558,3.65,44,GOOD,30.0
0.7357859531772575,23,0.00406292722962075,-0.014621568859650587,0.030934843424611204,0.12188781688862252,-0.4386470657895176,0.45526683190369555,1.13281517495768,-25.818713428262793,25.843553031875704,3.65,44,GOOD,30.0
0.7692307692307692,24,-0.011237153421564762,-0.041073083811926314,0.030959770002342065,-0.3371146026469429,-1.2321925143577894,1.277475889305617,-2.8221369234198295,8.542054367236036,8.996174166130054,3.65,44,GOOD,30.0
0.8026755852842808,25,-0.0022084881557566482,0.0043607741786517145,0.054705019586832035,-0.06625464467269945,0.13082322535955143,0.14664376643479138,19.88853473233587,26.14929725707891,32.85330365181567,3.65,44,GOOD,30.0
0.8361204013377926,26,0.0329595904280705,0.017036465648249045,0.02130292890613022,0.988787712842115,0.5110939694474713,1.1130670180510758,4.993856458985505,6.582488630546907,8.262430568799385,3.65,44,GOOD,30.0
0.8695652173913043,27,0.008888970641988918,0.018988526690978173,0.050448467750770554,0.2666691192596676,0.5696558007293452,0.6289834262294344,-22.1919703299715,0.023825823177867078,22.191983119950898,3.65,44,GOOD,30.0
0.903010033444816,28,-0.016355899194088388,0.01708941192197764,0.02943314628171335,-0.49067697582265163,0.5126823576593291,0.7096527985272737,-21.144965622273652,-8.01307292212488,22.61236185855926,3.65,44,GOOD,30.0
0.9364548494983277,29,-0.038099841851952525,0.0011816979751451042,0.022281634170832034,-1.1429952555585758,0.03545093925435313,1.143544893444691,-2.636761491743254,-11.641484601278378,11.936359364820653,3.65,44,GOOD,30.0
0.9698996655518394,30,-0.022215369175740064,-0.008780553858640981,0.05616727175520443,-0.6664610752722019,-0.2634166157592294,0.7166300847096954,29.6579048219207,-6.534334292320766,30.369208798878944,3.65,44,GOOD,30.0
1.0033444816053512,31,0.02780661330787125,-0.01333904489667882,0.029794829959756877,0.8341983992361375,-0.4001713469003646,0.9252156917001495,23.94169409442211,5.504517242481341,24.56632707963608,3.65,44,GOOD,30.0
1.0367892976588629,32,0.030988395478531293,0.003451706680206442,0.007474140552798098,0.9296518643559388,0.10355120040619327,0.9354012187323878,-15.153459994101595,3.999112775116491,15.672276566629924,3.65,44,GOOD,30.0
1.0702341137123745,33,-0.005867742234576742,-0.004452127618642174,0.03277113451790276,-0.17603226703730226,-0.1335638285592652,0.22096754362960386,-13.958355304461008,-7.126298787036103,15.672262670325782,3.65,44,GOOD,30.0
1.1036789297658862,34,-3.0171864715388547e-05,-0.012384512846540454,0.017943188927089435,-0.0009051559414616564,-0.3715353853962136,0.37153648799114114,3.225421906959646,12.17425108799223,12.594273938237773,3.65,44,GOOD,30.0
1.137123745819398,35,0.0012998620031113598,0.022601763688007225,0.03714417445478613,0.038995860093340794,0.6780529106402168,0.679173340710668,1.6539922306033745,12.341037127654088,12.451380954939616,3.65,44,GOOD,30.0
1.1705685618729096,36,0.0036453664255143327,0.015040014103801964,0.030103838189448957,0.10936099276542999,0.45120042311405895,0.4642646320332255,-8.361655336880672,-14.44813904491601,16.69329212090927,3.65,44,GOOD,30.0
1.2040133779264213,37,-0.01728159430106791,-0.009505211967361685,0.041050100492838776,-0.5184478290320373,-0.28515635902085057,0.5916944317112177,-5.2366192179683155,-12.176046378033892,13.25436857168335,3.65,44,GOOD,30.0
1.237458193979933,38,-0.00799156516997081,-0.012017866736273346,0.041951608656079234,-0.23974695509912433,-0.3605360020882004,0.4329720675529132,7.4559238354377495,6.249494592005087,9.728668094623723,3.65,44,GOOD,30.0
1.2709030100334449,39,-0.0007128746667618008,0.004382553792649619,0.026606633309391812,-0.021386240002854023,0.13147661377948855,0.13320462166299063,8.17428138607394,9.314170334415788,12.392443068145441,3.65,44,GOOD,30.0
1.3043478260869565,40,0.010173504576860164,0.008680289562428403,0.04624177644233602,0.3052051373058049,0.2604086868728521,0.4012017697327597,9.345863686645485,-5.224066904045834,10.706822267475339,3.65,44,GOOD,30.0
1.3377926421404682,41,0.020055711303561496,-0.007226483771896679,0.0440452245622385,0.6016713391068449,-0.21679451315690038,0.6395375370043274,-9.079996579476857,2.5912774700526153,9.442513267669456,3.65,44,GOOD,30.0
1.37123745819398,42,-0.010004265599755074,0.014438683940323105,0.005166181989871247,-0.30012796799265223,0.43316051820969315,0.526977069431952,-8.585608430965555,-4.627246416951388,9.753157516058904,3.65,44,GOOD,30.0
1.4046822742474916,43,0.0009765814569713724,-0.017509253587344203,0.0412010929234616,0.029297443709141172,-0.5252776076203262,0.5260940080206422,-4.136503944862189,-17.15101388012532,17.642787251511926,3.65,44,GOOD,30.0
1.4381270903010033,44,-0.019196496588337716,-0.023674680237733163,0.030229008796031433,-0.5758948976501315,-0.7102404071319949,0.9143830537922699,-3.4727582373241295,14.268415724354638,14.684949337941662,3.65,44,GOOD,30.0
1.471571906354515,45,-0.006740659070415583,0.014198336911221656,0.020033716818186175,-0.20221977211246747,0.4259501073366497,0.4715149310184373,13.484894810791895,7.475759982258751,15.418475131168565,3.65,44,GOOD,30.0
1.5050167224080266,46,0.010769936324533162,-0.007061880277158162,0.013588775895300482,0.32309808973599485,-0.21185640831474487,0.3863618942585732,-1.5117951689689855,-7.566888560959312,7.716432279680478,3.65,44,GOOD,30.0
1.5384615384615383,47,-0.010100203890346661,-0.002616971002021261,0.028674269608298178,-0.30300611671039984,-0.07850913006063782,0.313011805315382,-1.2741823225665472,18.1574096354314,18.20206211559553,3.65,44,GOOD,30.0
1.57190635451505,48,0.007938420052163057,0.033287918912689396,0.03439868909141337,0.2381526015648917,0.9986375673806819,1.026641930088642,12.891776838952152,8.093946074935541,15.222019351232857,3.65,44,GOOD,30.0
1.6053511705685617,49,0.018548189085102567,0.015369575831168828,0.04496088307474564,0.556445672553077,0.46108727493506485,0.7226570843837969,-6.912620486939985,-19.58590463398307,20.769977908701346,3.65,44,GOOD,30.0
1.6387959866220736,50,-0.007422958807703575,-0.010236313607272986,0.023920263806043018,-0.22268876423110726,-0.3070894082181896,0.3793338771512183,-1.7306964176410762,-10.490955485943042,10.632753975244327,3.65,44,GOOD,30.0
1.6722408026755853,51,0.014702197045900174,-0.00794365858203793,0.01993387255037389,0.44106591137700524,-0.2383097574611379,0.5013289126711271,-6.029450624514365,7.761098121582831,9.827966162248078,3.65,44,GOOD,30.0
1.705685618729097,52,-0.020821737973291055,0.007010571107355527,0.033746076352769945,-0.6246521391987316,0.21031713322066584,0.6591081789294614,-25.20513882651451,6.621601056329353,26.06040337011404,3.65,44,GOOD,30.0
1.7391304347826086,53,-0.04130922256857651,0.0067710104320273,0.04667004271345226,-1.2392766770572954,0.20313031296081902,1.2558139218617272,30.37355684908846,-20.665447593922558,36.73708861521239,3.65,44,GOOD,30.0
1.7725752508361203,54,0.04667505502468329,-0.03891264576802793,0.05415891681499939,1.4002516507404987,-1.167379373040838,1.8230412189532939,29.453863558746363,-12.457301502938769,31.979906805248316,3.65,44,GOOD,30.0
1.806020066889632,55,0.024143807561970956,-0.02091188179672552,0.07504817768438118,0.7243142268591287,-0.6273564539017655,0.9582312974865388,-35.23177497680203,29.61677762692052,46.0264215969314,3.65,44,GOOD,30.0
1.8394648829431437,56,-0.03161777825709899,0.026902415625128774,0.02055064127652821,-0.9485333477129696,0.8070724687538632,1.2454242175034291,-15.462895783145216,6.046206536584108,16.60294430164248,3.65,44,GOOD,30.0
1.8729096989966554,57,-0.01021818306724063,-0.007475867270983056,0.00901663501163498,-0.3065454920172189,-0.2242760181294917,0.379828739018125,11.422739894687087,-22.349701602381636,25.09956470573098,3.65,44,GOOD,30.0
1.906354515050167,58,-0.006233911824461016,-0.02276358793571931,0.04168387636325964,-0.1870173547338305,-0.6829076380715793,0.70805249318687,9.024773739612435,14.860360212004165,17.386110740522582,3.65,44,GOOD,30.0
1.9397993311036787,59,0.009836869687453668,0.02554715542235953,0.04055618863701957,0.29510609062361004,0.766414662670786,0.8212667288280495,570.7728795666366,930.547018356719,1091.6498675955447,3.65,44,GOOD,30.0
1.9732441471571907,60,1.2621502649902867,2.045118675079212,0.015808453367951537,37.8645079497086,61.35356025237636,72.09702017362106,2823.451716272455,532.6779658339588,2873.260414478102,3.65,44,GOOD,30.0
2.0066889632107023,61,6.284174016959576,1.2092759683867123,4.766348670834581,188.5252205087873,36.278279051601366,191.9840417816875,2287.4483457138335,-1937.8163687366357,2997.9246510298744,3.65,44,GOOD,30.0
2.040133779264214,62,6.345368811021029,-2.2611399221133115,12.799685393898233,190.36106433063085,-67.83419766339935,202.08615287972532,-3536.6752466234025,-1727.0873325016807,3935.8483779442618,3.65,44,GOOD,30.0
2.0735785953177257,63,-1.5751043088702064,-2.628695881617023,15.206240139684857,-47.25312926610619,-78.8608764485107,91.93419418076503,-6521.176925101885,327.78047513742194,6529.409508398335,3.65,44,GOOD,30.0
2.1070234113712374,64,-8.146135466983159,-1.532738866252374,9.830017722641442,-244.38406400949478,-45.98216598757122,248.67233527416232,-3725.935209878601,1300.5679511944968,3946.3996482727575,3.65,44,GOOD,30.0
2.140468227424749,65,-9.854960330822653,0.26145512103741386,3.6999785183641296,-295.6488099246796,7.843653631122416,295.7528388911328,910.9014030918579,1509.587869738974,1763.1213522097023,3.65,44,GOOD,30.0
2.1739130434782608,66,-6.121910126779031,1.8219008442786793,10.547916471295757,-183.65730380337092,54.657025328360376,191.61783752581258,4741.54908624391,910.9893739715324,4828.269811925334,3.65,44,GOOD,30.0
2.2073578595317724,67,0.6818154163860362,2.2858759520852634,13.337540023664861,20.454462491581086,68.5762785625579,71.56179858911482,5757.492758027487,-141.93873666339792,5759.242091083214,3.65,44,GOOD,30.0
2.240802675585284,68,6.672518224393161,1.5064814294711284,9.214757746967159,200.17554673179484,45.19444288413385,205.21400336473195,3581.718660450985,-1046.3572020346485,3731.430282997738,3.65,44,GOOD,30.0
2.274247491638796,69,8.641190217388225,-0.03936227465840014,3.122005522717071,259.23570652164676,-1.1808682397520043,259.238396048072,-389.37371703426993,-1354.7352389488499,1409.5813063342182,3.65,44,GOOD,30.0
2.3076923076923075,70,5.807243297650339,-1.504041323748538,8.635019836157223,174.21729892951018,-45.12123971245614,179.96553425443227,-3884.046866020042,-895.0967473901796,3985.8522607628834,3.65,44,GOOD,30.0
2.341137123745819,71,0.009974959565908215,-2.028466157747688,11.62298691374632,0.29924878697724644,-60.853984732430646,60.85472050425842,-5035.559506473255,35.879755801732145,5035.687331448366,3.65,44,GOOD,30.0
2.374581939799331,72,-5.382888938956894,-1.424308533078022,8.576962072341209,-161.4866681687068,-42.72925599234066,167.04410589388962,-3381.995823196226,875.773987716348,3493.5477420062994,3.65,44,GOOD,30.0
2.4080267558528425,73,-7.505571314203483,-0.08230174060024831,2.865738680574365,-225.16713942610448,-2.4690522180074495,225.18067611629115,-44.07065828742205,1195.7562822225084,1196.5681382171606,3.65,44,GOOD,30.0
2.441471571906354,74,-5.480823735151165,1.2329276496386632,6.942279430085121,-164.42471205453495,36.9878294891599,168.53363303666094,3123.685886055584,822.342400707706,3230.1177283103125,3.65,44,GOOD,30.0
2.474916387959866,75,-0.5640471229688524,1.7451258165279873,10.108572462216534,-16.921413689065574,52.353774495839616,55.020468420377185,4415.483349162404,30.542186096491157,4415.588979044811,3.65,44,GOOD,30.0
2.508361204013378,76,4.331361485209734,1.3007991742975324,7.903609488695403,129.94084455629203,39.02397522892598,135.6742190936446,3179.435336804407,-688.7082566178591,3253.172009539945,3.65,44,GOOD,30.0
2.5418060200668897,77,6.501364736596496,0.21466302404385584,2.742603314482885,195.04094209789488,6.439890721315676,195.1472297700812,317.78278702481316,-1016.6639460958235,1065.172041982134,3.65,44,GOOD,30.0
2.5752508361204014,78,5.037545456375986,-0.9584540392487414,5.566384801832526,151.12636369127958,-28.753621177462243,153.83740940800425,-2503.179490906673,-780.8153348413986,2622.132748512034,3.65,44,GOOD,30.0
2.608695652173913,79,0.9387436456927789,-1.5204821644925852,8.64282692316701,28.16230937078337,-45.61446493477756,53.60778936294393,-3778.081208876701,-121.6247371973405,3780.0383857264674,3.65,44,GOOD,30.0
2.6421404682274248,80,-3.3581905633500164,-1.2287312330206093,7.205295683532727,-100.7457169005005,-36.861936990618275,107.27768580882095,-2926.079629719384,555.5855411142065,2978.358153908608,3.65,44,GOOD,30.0
2.6755852842809364,81,-5.563655531461407,-0.28584762868323754,2.8001686385512796,-166.9096659438422,-8.575428860497126,167.12981351520276,-577.0811040681377,894.9464260949811,1064.871685346493,3.65,44,GOOD,30.0
2.709030100334448,82,-4.640593016834767,0.7600386027460156,4.368103485440033,-139.217790505043,22.80115808238047,141.0726266963359,1942.7177202159517,714.661568948991,2069.998381297362,3.65,44,GOOD,30.0
2.74247491638796,83,-1.2465050420926254,1.3022891912034091,7.3831937346868095,-37.39515126277876,39.06867573610227,54.08103883745957,3262.1126010960234,158.82047705728408,3265.9765103506434,3.65,44,GOOD,30.0
2.7759197324414715,84,2.608546096711951,1.112972996206647,6.567013851832537,78.25638290135853,33.38918988619941,85.08172227958671,2714.4519031629898,-433.7530001319937,2748.8890118934746,3.65,44,GOOD,30.0
2.809364548494983,85,4.785610298269574,0.33839363535453426,2.741791381265322,143.5683089480872,10.151809060636028,143.92678194629735,724.4412397072953,-753.1998995632048,1045.0479407618889,3.65,44,GOOD,30.0
2.842809364548495,86,4.218415518283718,-0.5608045583782526,3.4378620385816907,126.55246554851155,-16.824136751347577,127.66588469060655,-1507.232198421288,-646.079251666723,1639.8680737766992,3.65,44,GOOD,30.0
2.8762541806020065,87,1.4362054128889339,-1.0973380350159616,6.316118135069229,43.086162386668015,-32.92014105047885,54.22317840180293,-2782.058641701629,-207.99660730345897,2789.823090182684,3.65,44,GOOD,30.0
2.9096989966555182,88,-1.9639370188310121,-1.023019241274828,5.97009846030985,-58.918110564930366,-30.690577238244842,66.43233613051729,-2492.05240440103,315.7595886646336,2511.977170301238,3.65,44,GOOD,30.0
2.94314381270903,89,-4.101688819113354,-0.3956500602056646,2.777916817505644,-123.05066457340062,-11.86950180616994,123.62180683472566,-841.627708674079,656.2670386789697,1067.250498273224,3.65,44,GOOD,30.0
2.9765886287625416,90,-3.834220815884521,0.43535195578954905,2.678599501630386,-115.02662447653563,13.060558673686472,115.7657226096514,1158.3130760831025,603.466698277121,1306.086229218649,3.65,44,GOOD,30.0
3.0100334448160533,91,-1.5276597611509042,0.9453870470768266,5.34011852099594,-45.829792834527126,28.3616114123048,53.89574114119085,2384.023792889054,213.39594906254007,2393.5553630817512,3.65,44,GOOD,30.0
3.043478260869565,92,1.4636098349800442,0.909565175928527,5.3426968718679815,43.908295049401325,27.28695527785581,51.69638577774063,2236.175509408925,-247.08879111134013,2249.785274103537,3.65,44,GOOD,30.0
3.0769230769230766,93,3.4416191486467067,0.3963008446071819,2.6774151429857724,103.2485744594012,11.889025338215458,103.93082820506744,873.6748567253328,-539.3220489533101,1026.73074745097,3.65,44,GOOD,30.0
3.1103678929765883,94,3.4051095165918945,-0.28892826618993983,2.003928190722894,102.15328549775684,-8.667847985698195,102.52036542409215,-830.1211464112321,-543.5639187399718,992.25140537822,3.65,44,GOOD,30.0
3.1438127090301,95,1.5969054899550799,-0.8116189748149776,4.477541619549435,47.907164698652394,-24.348569244449326,53.739643222815964,-1977.8767720196115,-247.56136759082258,1993.3095986369394,3.65,44,GOOD,30.0
3.1772575250836117,96,-0.9901721990072425,-0.83906463861399,4.768657333147284,-29.705165970217276,-25.1719391584197,38.93614524209269,-2023.7875124800146,197.30492048693324,2033.38268098221,3.65,44,GOOD,30.0
3.2107023411371234,97,-2.9004000933338414,-0.3731635959551259,2.65742787889809,-87.01200280001524,-11.194907878653776,87.72921174660925,-928.7128566422494,474.1890094366553,1042.7668899438281,3.65,44,GOOD,30.0
3.2441471571906355,98,-3.0539785471011305,0.21468871568968845,1.5273019880405145,-91.61935641303391,6.440661470690653,91.8454603653255,596.002636340836,473.23264301967566,761.0310617475575,3.65,44,GOOD,30.0
3.277591973244147,99,-1.5759497903542057,0.6784644996441533,3.7068889138186623,-47.27849371062617,20.3539349893246,51.473669357209914,1663.7613101486,229.3406798945479,1679.4936274371153,3.65,44,GOOD,30.0
3.311036789297659,100,0.6432688087846474,0.724334671010906,4.205234934071398,19.298064263539423,21.73004013032718,29.062173497268354,1783.406157981659,-140.61922960937358,1788.9413886605776,3.65,44,GOOD,30.0
3.3444816053511706,101,2.3871750051605916,0.36597732273443423,2.518742647391452,71.61525015481774,10.979319682033028,72.45198075565223,928.1633314119128,-392.09411518543357,1007.5837260201797,3.65,44,GOOD,30.0
3.3779264214046822,102,2.7058539897000093,-0.1469855849567242,1.1335827113930455,81.17561969100028,-4.409567548701726,81.2952982538626,-374.5170299230952,-404.75605246434094,551.4439841986971,3.65,44,GOOD,30.0
3.411371237458194,103,1.5549149386648242,-0.5334805716307677,3.090425552854683,46.64744815994473,-16.004417148923032,49.31658735264914,-1380.1335822416,-216.9275207955918,1397.077755212484,3.65,44,GOOD,30.0
3.4448160535117056,104,-0.3611095263924351,-0.6290467422802615,3.6871615601927,-10.833285791773053,-18.871402268407845,21.759823175345442,-1580.9569583980397,62.64242371909154,1582.1975153426904,3.65,44,GOOD,30.0
3.4782608695652173,105,-1.9583227466641528,-0.3942751855883421,2.4223987722560953,-58.74968239992459,-11.828255567650263,59.92856423998208,-926.2543521890403,325.84508345346757,981.8972162909598,3.65,44,GOOD,30.0
3.511705685618729,106,-2.419452531256969,0.09505344317188857,0.9090366106154211,-72.58357593770907,2.8516032951566572,72.63957005144047,203.61554561247567,392.0673456589082,441.78738545491314,3.65,44,GOOD,30.0
3.5451505016722407,107,-1.505843756414207,0.476985582542565,2.5726134129979057,-45.17531269242621,14.30956747627695,47.38747300939994,1169.5366867512348,201.78892013190307,1186.817100460326,3.65,44,GOOD,30.0
3.5785953177257523,108,0.17951788374577493,0.5434732656872288,3.2431481360418966,5.385536512373248,16.304197970616862,17.170639912104978,1407.0572889434022,-58.533857289905846,1408.274272582579,3.65,44,GOOD,30.0
3.612040133779264,109,1.620950219015576,0.346910344120552,2.236659879290874,48.62850657046728,10.40731032361656,49.72970701146384,851.3554870490018,-251.49422023109108,887.724905665087,3.65,44,GOOD,30.0
3.6454849498327757,110,2.07141896607689,-0.015402779270751454,0.7684906503291602,62.1425689823067,-0.46208337812254363,62.144286951972376,-85.68225018485461,-314.9242917012558,326.37211507767887,3.65,44,GOOD,30.0
3.6789297658862874,111,1.430545218604788,-0.35292141521557213,2.054017757012378,42.91635655814364,-10.587642456467163,44.203074927110045,-917.3405835712475,-219.93947161892788,943.3382836728562,3.65,44,GOOD,30.0
3.712374581939799,112,0.0328843359185621,-0.5041571606461467,2.8613883403997864,0.9865300775568631,-15.124714819384401,15.156854553687268,-1242.971739738316,-0.44496146515797363,1242.971819382403,3.65,44,GOOD,30.0
3.7458193979933108,113,-1.3316142030359146,-0.35391021847147874,2.0990221877212782,-39.94842609107744,-10.617306554144362,41.335262737993496,-846.310073730251,220.9876801516418,874.6863984743944,3.65,44,GOOD,30.0
3.7792642140468224,114,-1.8478047168153289,-0.013073426975831637,0.6747175924074386,-55.434141504459866,-0.3922028092749491,55.43552892667376,15.095214012670475,288.28816109494295,288.6830949563762,3.65,44,GOOD,30.0
3.812709030100334,115,-1.2980692830077578,0.28673013951728343,1.720583387443988,-38.94207849023274,8.601904185518503,39.880800302354615,780.6647631214767,200.2001734181966,805.9265362402377,3.65,44,GOOD,30.0
3.846153846153846,116,-0.11299413210093645,0.43181584728682754,2.3997362712002213,-3.3898239630280935,12.954475418604826,13.39064374373227,1041.8992789828549,17.77324717499212,1042.0508604958475,3.65,44,GOOD,30.0
3.8795986622073575,117,1.0172624480652528,0.32622624435059927,1.911388972583713,30.517873441957583,9.786787330517978,32.048741093405326,756.343754387399,-178.25368205618804,777.0651516876914,3.65,44,GOOD,30.0
3.913043478260869,118,1.5677697665377281,0.03569655382863185,0.6854609232639887,47.03309299613184,1.0708966148589556,47.04528304030599,91.70415770828843,-244.50389620022474,261.13561189174663,3.65,44,GOOD,30.0
3.9464882943143813,119,1.2210494651947825,-0.21711574720545573,1.3364004798945346,36.63148395584348,-6.513472416163672,37.206060524104714,-584.7488710276396,-182.47529870847433,612.5589578210786,3.65,44,GOOD,30.0
3.979933110367893,120,0.2683278309207513,-0.36980410996797775,2.0831177646341468,8.04983492762254,-11.094123299039332,13.706911181453652,-908.4955507800656,-43.35081950208784,909.5292515024888,3.65,44,GOOD,30.0
4.013377926421405,121,-0.7978295365386965,-0.3134509016545398,1.8216011270504395,-23.934886096160895,-9.403527049636194,25.71585295901024,-761.9800789822878,142.58485339663684,775.20583149509,3.65,44,GOOD,30.0
4.046822742474916,122,-1.4249612334843325,-0.05294888019767363,0.6807284196403499,-42.748837004529975,-1.588466405930209,42.778339036978046,-154.708971722969,227.53171664818498,275.1464119563407,3.65,44,GOOD,30.0
4.080267558528428,123,-1.1416272514786276,0.19217513534142686,1.1267598826109295,-34.24881754435883,5.765254060242806,34.73067315163827,523.9473268536519,167.5552811587484,550.0868781940493,3.65,44,GOOD,30.0
4.113712374581939,124,-0.2606338404762173,0.3193961890439895,1.803513389903322,-7.819015214286519,9.581885671319684,12.36727665816066,788.6235101713851,33.63831326299024,789.3405962664126,3.65,44,GOOD,30.0
4.147157190635451,125,0.610869437791117,0.26692694259251626,1.5915313740223607,18.326083133733512,8.007808277775489,19.999257897185124,631.3334403510205,-113.59615829908903,641.4717453526439,3.65,44,GOOD,30.0
4.180602006688963,126,1.1423293603038285,0.06696028171268054,0.7260639577172641,34.26988080911485,2.0088084513804163,34.32870580236423,197.90618023338988,-181.7536240849088,268.70287687810367,3.65,44,GOOD,30.0
4.214046822742475,127,1.0506609494208723,-0.13696999981839217,0.8016350423201869,31.51982848262617,-4.109099994551765,31.786542598077528,-352.99758482908976,-150.16312201086305,383.60951253484285,3.65,44,GOOD,30.0
4.247491638795986,128,0.35789028290585106,-0.26673554497812624,1.5309023078592177,10.736708487175532,-8.002066349343787,13.390667459013658,-696.0685492302249,-58.86443328578869,698.553109458062,3.65,44,GOOD,30.0
4.280936454849498,129,-0.4961580488685163,-0.2677798515645893,1.435872080151472,-14.88474146605549,-8.033395546937678,16.914223970518712,-609.653008588412,83.3865899706551,615.3292730464207,3.65,44,GOOD,30.0
4.31438127090301,130,-0.9968941806239535,-0.08143201171000378,0.6471710975339053,-29.906825418718604,-2.4429603513001132,30.006437007811133,-194.8850899970603,171.85366409610617,259.8343321549706,3.65,44,GOOD,30.0
4.3478260869565215,131,-0.9292360266397615,0.11411717976009111,0.6540624785441166,-27.877080799192843,3.4235153928027335,28.0865108464808,298.1620090165755,135.46419222345435,327.4921846327839,3.65,44,GOOD,30.0
4.381270903010034,132,-0.33431193836489687,0.21959952656433923,1.336403420012062,-10.029358150946907,6.587985796930177,11.999565899669824,582.4908320179812,46.091661434042294,584.3115698313276,3.65,44,GOOD,30.0
4.414715719063545,133,0.365188044511308,0.21654309405796288,1.241005063638461,10.955641335339239,6.496292821738886,12.736871574070689,517.8054109183198,-49.49139629329883,520.1652063367468,3.65,44,GOOD,30.0
4.448160535117057,134,0.8163667525647027,0.10961864591256405,0.6647225723266015,24.49100257694108,3.2885593773769215,24.710803912504918,217.23221576612968,-130.55475854778268,253.44502470187132,3.65,44,GOOD,30.0
4.481605351170568,135,0.8479263017693739,-0.07357859160377647,0.5179219163448374,25.437789053081218,-2.207357748113294,25.53338089907434,-202.22992962384598,-137.33683369348995,244.45521128546025,3.65,44,GOOD,30.0
4.51505016722408,136,0.36696690895615613,-0.19557431785074697,1.106755851403517,11.009007268684684,-5.8672295355224096,12.474879697394229,-496.54683282114416,-61.92504846064053,500.3933141155685,3.65,44,GOOD,30.0
4.548494983277592,137,-0.2555111044998352,-0.21118981040519988,1.1323696247603834,-7.665333134995056,-6.335694312155996,9.944765180110538,-474.43540135025245,35.61415422366499,475.7702366010742,3.65,44,GOOD,30.0
4.581939799331104,138,-0.6873339829332938,-0.11643175290926924,0.6498909266207012,-20.620019487998814,-3.492952587278077,20.913773486925393,-231.5985652369915,125.0627562892083,263.2082605665843,3.65,44,GOOD,30.0
4.615384615384615,139,-0.7701745828042608,0.06672742579304079,0.3798712574941261,-23.105237484127823,2.0018227737912238,23.19179366964993,126.04277995123782,133.97063937334653,183.94269377156417,3.65,44,GOOD,30.0
4.648829431438127,140,-0.4072389163749875,0.1812807790315008,0.9650018219533613,-12.217167491249626,5.438423370945024,13.372943964246904,434.1787490403069,38.33865647471078,435.86814370689183,3.65,44,GOOD,30.0
4.682274247491638,141,0.1946670817297546,0.15192444018128698,1.0606814344785707,5.840012451892639,4.557733205438609,7.40801440402344,458.0282067575841,-39.86417433394611,459.75970961024353,3.65,44,GOOD,30.0
4.7157190635451505,142,0.6106015430863104,0.092693724956065,0.5860234602656645,18.31804629258931,2.78081174868195,18.527917690853783,204.6968285335272,-76.35976842235428,218.4756413085903,3.65,44,GOOD,30.0
4.749163879598662,143,0.6495489229153706,-0.01776393409061143,0.30398527909775175,19.48646768746112,-0.5329180227183429,19.493753475239302,-101.51807614458038,-108.36284408809982,148.48712322271803,3.65,44,GOOD,30.0
4.782608695652174,144,0.38500581832057623,-0.14811259523971237,0.7446481956220471,11.550174549617287,-4.443377857191371,12.375384394369554,-345.7979476590668,-59.47835593913916,350.87589747722143,3.65,44,GOOD,30.0
4.816053511705685,145,-0.11889096077144437,-0.14993805839980956,0.9337687136678471,-3.566728823143331,-4.498141751994287,5.740630080302653,-394.61139832888915,38.27391412163455,396.4631738172809,3.65,44,GOOD,30.0
4.849498327759197,146,-0.4919084001880663,-0.06305945274719116,0.5277515692847761,-14.75725200564199,-1.8917835824157347,14.878015051770925,-190.68201262167696,82.08117361436156,207.59804671375002,3.65,44,GOOD,30.0
4.882943143812708,147,-0.5426287665973931,0.032464549632105016,0.17334034569738913,-16.278862997921795,0.9739364889631505,16.3079714492527,59.18760804922082,67.43541760535336,89.7257404215568,3.65,44,GOOD,30.0
4.916387959866221,148,-0.3603803823009089,0.08679703082026077,0.5991979507184121,-10.811411469027268,2.603910924607823,11.120565185992406,249.91122246195343,47.281524707079534,254.3445727572227,3.65,44,GOOD,30.0
4.949832775919732,149,0.012729505540281183,0.1375346045367262,0.7716885812227501,0.3818851662084355,4.126038136101786,4.143673126675938,342.8537789106834,3.871469445069664,342.87563633043374,3.65,44,GOOD,30.0
4.983277591973244,150,0.4015169041672763,0.0954002962537489,0.585815730395228,12.04550712501829,2.8620088876124674,12.380845559639258,229.09558216082044,-74.30745393767377,240.8451441825322,3.65,44,GOOD,30.0
5.016722408026756,151,0.5218307992309933,-0.02759307088032663,0.20115565936955926,15.6549239769298,-0.8277921264097988,15.676794459582533,-31.27485611926037,-89.83920653019779,95.12728134061211,3.65,44,GOOD,30.0
5.050167224080267,152,0.33201722390225324,-0.10424238492446836,0.49241188023603694,9.960516717067598,-3.127271547734051,10.439909990236986,-234.82812154030196,-29.997676816942086,236.73636662025658,3.65,44,GOOD,30.0
5.083612040133779,153,-9.470858566590357e-06,-0.0942545749179757,0.6954889715473476,-0.0002841257569977107,-2.827637247539271,2.8276372618139884,-295.54352526287107,12.319313896027959,295.80017041860236,3.65,44,GOOD,30.0
5.117056856187291,154,-0.3247461655707935,-0.076866131822184,0.48756415663812636,-9.742384967123805,-2.3059839546655203,10.011574643721872,-194.88251836297022,27.200690887416044,196.7716279046504,3.65,44,GOOD,30.0
5.150501672240803,155,-0.43308173388738935,-0.03380859516816227,0.16985217647971707,-12.99245201662168,-1.0142578550448682,13.03198098528144,-5.1806468087298985,63.89501016640203,64.10469113505985,3.65,44,GOOD,30.0
5.183946488294314,156,-0.3362587140346377,0.06512277965870938,0.41340247190114054,-10.087761421039131,1.9536833897612815,10.275203612349225,189.51515803220758,65.83420765777026,200.62437045857374,3.65,44,GOOD,30.0
5.217391304347826,157,-0.011936938260261404,0.1124896440713272,0.6274728768703659,-0.3581081478078421,3.3746893221398158,3.3936366137951266,282.8746482636273,-2.836407472186253,282.88886835225446,3.65,44,GOOD,30.0
5.250836120401337,158,0.29235161544008953,0.058819651942739935,0.41630051603432655,8.770548463202687,1.764589558282198,8.946300724578041,162.2417000817274,-41.953017032854696,167.5781157656577,3.65,44,GOOD,30.0
5.2842809364548495,159,0.34860017303246615,0.019260717331650093,0.09418638075830667,10.458005190973985,0.5778215199495028,10.473955808736047,-8.130539198750393,-41.22650987884005,42.02059952514377,3.65,44,GOOD,30.0
5.317725752508361,160,0.2742837505539776,-0.03279481445468238,0.3096532434739156,8.228512516619327,-0.9838444336404715,8.28712061609859,-118.43306593410665,-45.173350142657426,126.75575990724674,3.65,44,GOOD,30.0
5.351170568561873,161,0.08541558206778471,-0.08112450520758863,0.5070285577652622,2.5624674620335415,-2.433735156227659,3.534021265448057,-219.65901933637963,-11.750039922407632,219.97306247356326,3.65,44,GOOD,30.0
5.384615384615384,162,-0.2138474035268661,-0.05890601428225489,0.4611759169107912,-6.415422105805983,-1.767180428467647,6.65436454234536,-196.9056519780373,29.239732547544264,199.0648078901639,3.65,44,GOOD,30.0
5.418060200668896,163,-0.3521525334389648,-0.01614732176860137,0.12668103752077678,-10.564576003168945,-0.4844196530580411,10.575676268069197,-17.359828393416077,42.59307605549517,45.99493200036338,3.65,44,GOOD,30.0
5.4515050167224075,164,-0.2524247999566796,0.0357452658410677,0.25845235997475213,-7.572743998700388,1.072357975232031,7.648294142937789,127.54505008623998,38.91795448613023,133.35046675166146,3.65,44,GOOD,30.0
5.48494983277592,165,-0.06871908880287597,0.07033702153391025,0.4267536894502455,-2.0615726640862793,2.1101106460173074,2.9500252181538005,177.527614913045,11.122266322005652,177.8756837368504,3.65,44,GOOD,30.0
5.518394648829431,166,0.14208101096119816,0.06046141322330248,0.3877978313205676,4.262430328835944,1.8138423966990744,4.632314383571514,153.8633726963992,-18.400171241556574,154.95968430282002,3.65,44,GOOD,30.0
5.551839464882943,167,0.2731995171891223,0.02944775210822897,0.1696983836685755,8.195985515673668,0.8834325632468691,8.243459932997641,50.42359236059307,-31.733694725613365,59.578234679165185,3.65,44,GOOD,30.0
5.585284280936454,168,0.25413343842918273,-0.010057908389171671,0.20219721731622572,7.624003152875482,-0.30173725167515014,7.629971785275734,-82.31922985046316,-52.40536529759744,97.58472173013568,3.65,44,GOOD,30.0
5.618729096989966,169,0.09026789529920412,-0.08700861521976534,0.373813685046323,2.7080368589761235,-2.6102584565929603,3.761238205669555,-164.94389707704286,-28.66789148058951,167.4166574296147,3.65,44,GOOD,30.0
5.652173913043478,170,-0.11240855507535698,-0.0737643339015928,0.34819656063065985,-3.3722566522607096,-2.212930017047784,4.033506438456212,-149.84330710189005,29.08663507611749,152.64026016514308,3.65,44,GOOD,30.0
5.68561872909699,171,-0.24271723159388486,-0.0223716483839487,0.16002831773490928,-7.281516947816546,-0.6711494515184611,7.3123820091412846,-54.04392264514471,45.268417808000024,70.49805121926448,3.65,44,GOOD,30.0
5.719063545150502,172,-0.23250616095345633,0.026832150116185012,0.17307640143925182,-6.97518482860369,0.8049645034855504,7.021479277549342,69.99573709314117,49.578554489045835,85.77549927826375,3.65,44,GOOD,30.0
5.752508361204013,173,-0.08717114916468226,0.08780291714726426,0.3239201889519474,-2.6151344749404677,2.634087514417928,3.711784659114073,155.07302739499087,5.762275666441848,155.18004912456902,3.65,44,GOOD,30.0
5.785953177257525,174,0.11210056659096783,0.03963720715272245,0.32494635240614844,3.363016997729035,1.1891162145816736,3.567054905492129,130.45904709086952,-41.121205748521454,136.78639014927597,3.65,44,GOOD,30.0
5.8193979933110365,175,0.20273784437058331,-0.003577540071672304,0.11513088805398387,6.0821353311175,-0.10732620215016912,6.083082203923908,40.36995153170954,-30.694116759346148,50.71352669957939,3.65,44,GOOD,30.0
5.852842809364549,176,0.2018115699947668,-0.028571941201380097,0.11299056280408835,6.054347099843004,-0.857158236041403,6.114723137394775,-52.348042176412676,-5.465916116435079,52.6326301707922,3.65,44,GOOD,30.0
5.88628762541806,177,0.08640886175633294,-0.015724020330416925,0.3045641347182186,2.592265852689988,-0.47172060991250775,2.6348363487774304,-134.46824950513877,0.9885253930392307,134.47188296230902,3.65,44,GOOD,30.0
5.919732441471572,178,-0.09700676223887492,-0.026375218105737362,0.26503144983288346,-2.9102028671662477,-0.7912565431721209,3.015852722726251,-112.85806753897026,-15.45605041738906,113.91151347926005,3.65,44,GOOD,30.0
5.953177257525083,179,-0.1643868438858232,-0.05007079903572595,0.12183986655502392,-4.931605316574696,-1.5021239710717784,5.1552989654273444,-23.825990315573787,16.172583891801548,28.796358871481907,3.65,44,GOOD,30.0
5.986622073578595,180,-0.14995340738459445,0.00956385720937718,0.09132068077560708,-4.498602221537833,0.2869157162813154,4.507742514371729,37.942460350959195,41.54313458145639,56.262441542623336,3.65,44,GOOD,30.0
6.020066889632107,181,-0.08007026532813608,0.042247277811954934,0.19206163352458952,-2.4021079598440824,1.267418334358648,2.7159661052772273,74.61866374724974,20.09211725471333,77.2763751427451,3.65,44,GOOD,30.0
6.053511705685619,182,0.015865845387071642,0.054213006664295696,0.2275886334756579,0.47597536161214926,1.6263901999288708,1.6946083993909886,97.18806588240037,-14.842982470490474,98.31497484402405,3.65,44,GOOD,30.0
6.08695652173913,183,0.1359032144105314,0.009262872321976107,0.1751348928420763,4.077096432315942,0.2778861696592832,4.086555522893491,71.91264594027372,-39.29811083107063,81.94980269056343,3.65,44,GOOD,30.0
6.120401337792642,184,0.17567172525434657,-0.033116128515861265,0.06062363198793805,5.270151757630397,-0.993483855475838,5.362975826865705,-30.61801690053055,-24.191351039596242,39.02158920446665,3.65,44,GOOD,30.0
6.153846153846153,185,0.06786317685379686,-0.04449568554379332,0.19397788979709504,2.0358953056139057,-1.3348705663137996,2.4344915535346723,-92.67958089214913,9.521504826975377,93.1673964888712,3.65,44,GOOD,30.0
6.187290969899665,186,-0.03028289895042928,-0.011957228900360427,0.18741880686758494,-0.9084869685128784,-0.35871686701081285,0.9767427310381034,-65.99086743563964,26.90975742715298,71.26660950049735,3.65,44,GOOD,30.0
6.220735785953177,187,-0.07878319522540235,0.01530377540543552,0.1338647767441363,-2.3634958567620705,0.45911326216306564,2.4076747397490146,-46.59449828440866,-4.491191300397836,46.81044829600044,3.65,44,GOOD,30.0
6.254180602006689,188,-0.1338262284713374,-0.021937654012355617,0.029575614175237668,-4.014786854140122,-0.6581296203706686,4.068371674439981,-14.457985812803422,1.4546211155931201,14.530976441834678,3.65,44,GOOD,30.0
6.2876254180602,189,-0.11091205258718773,0.018536266773420233,0.14635575347381577,-3.327361577615632,0.556088003202607,3.3735098837114217,58.70629798803554,31.424140660468662,66.58758172293798,3.65,44,GOOD,30.0
6.321070234113712,190,-0.0033677884979251005,0.047893769677574735,0.19930894422770962,-0.10103365493775301,1.436813090327242,1.4403609464178764,101.0394603224519,6.749150031480845,101.26462150425374,3.65,44,GOOD,30.0
6.354515050167223,191,0.11362008146270539,0.03353437795448878,0.1462849159429235,3.4086024438811617,1.0060313386346633,3.553965345181025,55.13092849256288,-22.44594212839805,59.525117341198715,3.65,44,GOOD,30.0
6.3879598662207355,192,0.11914538592999241,-0.001986101718865374,0.09078815262168419,3.574361577899772,-0.05958305156596122,3.5748581551720426,-14.869414776195052,-29.457077278880355,32.997255910157996,3.65,44,GOOD,30.0
6.421404682274247,193,0.08057693751560528,-0.03192579377635645,0.10287459227147898,2.4173081254681583,-0.9577738132906936,2.600136390822562,-48.3206906675201,-19.745958323071033,52.19954038765688,3.65,44,GOOD,30.0
6.454849498327759,194,0.011766073335503308,-0.045866009103467664,0.1912909212538068,0.3529822000650992,-1.37598027310403,1.420534457707464,-80.45112524626481,3.7315930360327,80.5376206500835,3.65,44,GOOD,30.0
6.488294314381271,195,-0.09820334080942762,-0.023633364807394898,0.1336408019156051,-2.9461002242828287,-0.7090009442218469,3.0302126774249367,-59.38371061968906,31.301349920167127,67.1282324643493,3.65,44,GOOD,30.0
6.521739130434782,196,-0.1201977280415835,0.023692546274681495,0.02584104143501798,-3.605931841247505,0.7107763882404449,3.6753159752329805,6.144726397560238,18.858145329363982,19.833993742166154,3.65,44,GOOD,30.0
6.555183946488294,197,-0.08454839325929375,0.01827362481341395,0.12024704336711477,-2.536451797778813,0.5482087444024185,2.595018410319019,54.23347830532449,-2.149807200915534,54.276070602938915,3.65,44,GOOD,30.0
6.588628762541806,198,0.00032111263691536607,0.018915196939313643,0.17588637595186768,0.009633379107460982,0.5674559081794093,0.5675376725123595,66.56953253273511,0.21338398220382637,66.56987452557455,3.65,44,GOOD,30.0
6.622073578595318,199,0.06338390125789536,0.018747811440533564,0.12232385447868996,1.9015170377368609,0.5624343432160069,1.9829522019535388,46.360972769898034,-5.608585191675867,46.69899382238886,3.65,44,GOOD,30.0
6.655518394648829,200,0.1033454965700221,0.00645167429114505,0.06912088671813521,3.100364897100663,0.19355022873435151,3.1064005192854838,16.317490691805844,-23.177138944605346,28.345021999192593,3.65,44,GOOD,30.0
6.688963210702341,201,0.09964499168413057,-0.03275694176970054,0.09644057076545141,2.989349750523917,-0.9827082530910162,3.146732820188362,-36.70753236188397,-22.18815245567343,42.89238908588522,3.65,44,GOOD,30.0
6.722408026755852,202,0.02177320243250217,-0.04285533116590701,0.1514506222506501,0.6531960729750651,-1.2856599349772102,1.4420771748265246,-72.52408904177139,20.000239825253512,75.23133047079816,3.65,44,GOOD,30.0
6.7558528428093645,203,-0.06151965063091697,0.011688035619751706,0.13864501226775724,-1.845589518927509,0.3506410685925512,1.8786031596265351,-52.39892740674332,28.23109211406675,59.520098751010806,3.65,44,GOOD,30.0
6.789297658862876,204,-0.09466885847137188,0.01988042908757466,0.02835481216706689,-2.8400657541411563,0.5964128726272399,2.902013404945065,1.943837789508327,-1.4600138087959034,2.431079117140234,3.65,44,GOOD,30.0
6.822742474916388,205,-0.05720001109867624,0.008443560489094143,0.05852312719533783,-1.7160003329602873,0.2533068146728243,1.734595481684277,32.946236830282544,-9.155535922919542,34.19471244670638,3.65,44,GOOD,30.0
6.856187290969899,206,-0.021454998848521787,-0.0004652062966909844,0.0900804403649777,-0.6436499654556537,-0.013956188900729532,0.6438012529031744,42.9410841342706,-1.7478592481103243,42.97664154605046,3.65,44,GOOD,30.0
6.889632107023411,207,0.03822462031081397,0.004559428826626756,0.10137995193256265,1.1467386093244192,0.13678286479880267,1.1548675206351031,27.91365107336777,-4.8509398752597885,28.33202311729805,3.65,44,GOOD,30.0
6.9230769230769225,208,0.040575336870073246,-0.011245072686157181,0.03449637111404282,1.2172601061021975,-0.33735218058471544,1.2631423750524704,2.937569408629823,-4.782126379362082,5.612312067117122,3.65,44,GOOD,30.0
6.956521739130435,209,0.044752552329991355,-0.006067518683066759,0.035133087949263286,1.3425765698997407,-0.18202556049200275,1.3548598269622512,14.322645414794147,10.42444045070041,17.71460217978724,3.65,44,GOOD,30.0
6.989966555183946,210,0.07240343779183801,0.011920350537621506,0.08173954741230711,2.1721031337551406,0.3576105161286452,2.2013444312316732,-38.8438686292685,-12.60830921714484,40.838898018959924,3.65,44,GOOD,30.0
7.023411371237458,211,-0.04156715573504975,-0.03408598361005529,0.12487933445063913,-1.2470146720514925,-1.0225795083016587,1.6126730738466968,-72.14199559372005,-14.089723785246731,73.50501917956944,3.65,44,GOOD,30.0
7.056856187290969,212,-0.08791210797198432,-0.019390146762926785,0.04760314229250792,-2.6373632391595296,-0.5817044028878036,2.7007526483573248,5.028117491433451,18.456912194585747,19.129547126534572,3.65,44,GOOD,30.0
7.090301003344481,213,-0.03039356130964208,0.006929376822357482,0.06726465484461444,-0.9118068392892624,0.20788130467072446,0.9352039077154658,33.4948235212366,23.418104683106076,40.86943637570378,3.65,44,GOOD,30.0
7.123745819397993,214,-0.01347916681368077,0.032650085866197824,0.07303059809889552,-0.40437500441042307,0.9795025759859347,1.0596907287293833,11.560936776498416,3.412608149670434,12.054092812542578,3.65,44,GOOD,30.0
7.157190635451505,215,-0.00470259069520116,0.014512950488291779,0.0809119022905567,-0.14107772085603482,0.4353885146487534,0.45767464645748185,27.186214803227436,-13.45782744233832,30.334854454817762,3.65,44,GOOD,30.0
7.190635451505017,216,0.04693464386015798,0.0027438026610015556,0.07440177918647439,1.4080393158047393,0.08231407983004667,1.4104433071166476,38.63166701916087,-4.81829157558737,38.930985479264436,3.65,44,GOOD,30.0
7.224080267558528,217,0.08114555823626744,0.003805635875875402,0.031301604483831305,2.4343667470880233,0.11416907627626206,2.4370424775341317,-5.609161993589211,-7.048277785828662,9.007825376667306,3.65,44,GOOD,30.0
7.25752508361204,218,0.03446983942995973,-0.012919036863062137,0.08808165210143919,1.0340951828987919,-0.3875711058918641,1.1043388109709484,-53.92306968959729,-3.2308185184035323,54.01977076078744,3.65,44,GOOD,30.0
7.290969899665551,219,-0.03868348551839319,-0.0033739608316880033,0.08481237067086916,-1.1605045655517958,-0.1012188249506401,1.1649103386917599,-42.888201260126586,7.11606022853858,43.47454566186187,3.65,44,GOOD,30.0
7.3244147157190636,220,-0.06083727448143267,0.0028944303114680396,0.01127877100768916,-1.8251182344429802,0.08683290934404118,1.8271826739112353,-1.9466288360751904,-11.896168998318942,12.054385121689291,3.65,44,GOOD,30.0
7.357859531772575,221,-0.04300932737633806,-0.029809891939063426,0.037516269714792605,-1.2902798212901418,-0.8942967581719028,1.5699008595784942,15.777039552992417,-1.3765272435018148,15.836975857429026,3.65,44,GOOD,30.0
7.391304347826087,222,-0.025777186585893966,-0.0001645191185359932,0.09841594237923423,-0.773315597576819,-0.004935573556079796,0.773331347704152,22.810503828172024,26.297078884289622,34.811714159771014,3.65,44,GOOD,30.0
7.424749163879598,223,0.007680681130710885,0.02862806113713573,0.08867062192273141,0.23042043392132655,0.8588418341140719,0.8892147504359762,29.6630449704792,-1.43006238119925,29.697496785668527,3.65,44,GOOD,30.0
7.45819397993311,224,0.040140691126282026,-0.003342435521200993,0.06029974097087321,1.2042207337884607,-0.10027306563602979,1.2083882916422461,24.116213526734434,-10.609147616660104,26.346646238546825,3.65,44,GOOD,30.0
7.4916387959866215,225,0.06127226674567629,0.00505217754455772,0.008143292476106864,1.8381680023702887,0.1515653263367316,1.8444060434420446,-10.061605456844406,6.176981963776149,11.806397018143045,3.65,44,GOOD,30.0
7.525083612040134,226,0.01778156788885001,0.010384191064968226,0.06268012697588299,0.5334470366655003,0.3115257319490468,0.6177491583107119,-30.78942607668194,-13.890514108015322,33.777731426435885,3.65,44,GOOD,30.0
7.558528428093645,227,-0.007148680091394695,-0.025815631584365218,0.03434941007288871,-0.21446040274184086,-0.7744689475309565,0.8036139714028745,-12.899527858178233,-7.853623386300233,15.102225639214845,3.65,44,GOOD,30.0
7.591973244147157,228,-0.010884049573768286,-0.00706830534903229,0.06775843984487452,-0.3265214872130486,-0.2120491604709687,0.3893342112738921,-19.75503305473939,18.7175703214996,27.21412812739237,3.65,44,GOOD,30.0
7.625418060200668,229,-0.05104875354637111,0.01577896913007834,0.008652945380242479,-1.5314626063911334,0.4733690739023502,1.6029522746799083,-4.403861411498271,1.900419797081011,4.796414362502574,3.65,44,GOOD,30.0
7.65886287625418,230,-0.020670408265986664,-0.0028451502444078207,0.056177042529834985,-0.6201122479796,-0.08535450733223462,0.625958937963379,28.103544683040752,-5.0547382197319735,28.554502310873627,3.65,44,GOOD,30.0
7.692307692307692,231,0.01140356797149723,0.004546217530673956,0.035699078074391606,0.3421070391449169,0.1363865259202187,0.36829133941091824,12.341111466054624,5.958881391756435,13.704426279804858,3.65,44,GOOD,30.0
7.725752508361204,232,0.00675428388080139,0.01039680840393981,0.031801470196822,0.2026285164240417,0.31190425211819434,0.371944321313847,10.93246023377675,-0.5520484221153278,10.946389551969636,3.65,44,GOOD,30.0
7.759197324414715,233,0.035697924046556674,0.003319443259306561,0.03099844970954401,1.0709377213967002,0.09958329777919683,1.0755577326703278,18.997303981066022,-11.678161497172802,22.299708843459733,3.65,44,GOOD,30.0
7.792642140468227,234,0.048970514949836993,-0.015554661589777526,0.04035760713112875,1.4691154484951099,-0.4666398476933258,1.5414450844782757,-14.592801758533842,-8.695840796385484,16.987274952738904,3.65,44,GOOD,30.0
7.826086956521738,235,0.0032694756942592447,-0.016004647399327845,0.07634852699454829,0.09808427082777735,-0.4801394219798354,0.4900554955542762,-47.37025866683214,11.080377960715458,48.64890730442868,3.65,44,GOOD,30.0
7.8595317725752505,236,-0.0562967265320122,0.009068400545145712,0.056937932958354094,-1.688901795960366,0.2720520163543714,1.7106728430651574,-12.120453767521184,9.37613686468209,15.323750912745513,3.65,44,GOOD,30.0
7.892976588628763,237,-0.023664866011343384,0.004831212299965686,0.037842094280071396,-0.7099459803403015,0.14493636899897058,0.7245894327548239,15.715739550398116,-0.6510457813730891,15.729218996040181,3.65,44,GOOD,30.0
7.926421404682274,238,-0.02137286086446083,0.007621632142094403,0.02263312383854734,-0.6411858259338249,0.2286489642628321,0.6807346121925247,-1.361616619797632,8.974653523200537,9.077356756281254,3.65,44,GOOD,30.0
7.959866220735786,239,-0.02669068072200479,0.024774886795966875,0.0830972228109613,-0.8007204216601437,0.7432466038790063,1.09250570151431,15.471310284405364,-4.160998388077668,16.021090771290577,3.65,44,GOOD,30.0
7.993311036789297,240,0.013007828656439978,-0.0016250309425226376,0.060173420395544006,0.3902348596931993,-0.04875092827567913,0.3932682274574331,31.726116248713787,-24.310826893394896,39.969522845131806,3.65,44,GOOD,30.0
8.02675585284281,241,0.04381179983069251,-0.02924917296713289,0.05741465852281797,1.3143539949207754,-0.8774751890139868,1.580344624219456,16.77906214682795,-16.433182076022863,23.485876600008645,3.65,44,GOOD,30.0
8.060200668896321,242,0.05029463342716876,-0.038143213333684554,0.04626150344681879,1.5088390028150627,-1.1442964000105367,1.8936761569743192,-29.623036145127852,23.529291622881807,37.830567465082616,3.65,44,GOOD,30.0
8.093645484949832,243,-0.02201716938070271,0.02303814175038223,0.0728288632180007,-0.6605150814210813,0.6911442525114669,0.9560128401670827,-24.796287684890203,34.86314111411731,42.78194118193674,3.65,44,GOOD,30.0
8.127090301003344,244,-0.0048082280948094774,0.039330433586576126,0.01774232782453781,-0.14424684284428432,1.179913007597284,1.1886975465474015,-1.1520579873462062,-13.064654006832386,13.115350621483579,3.65,44,GOOD,30.0
8.160535117056856,245,-0.024577298241472055,-0.0059944227092452946,0.04394132312996451,-0.7373189472441617,-0.17983268127735885,0.7589328186477662,-11.973353936407145,-31.135131452245172,33.358021749424275,3.65,44,GOOD,30.0
8.193979933110368,246,-0.031415681286825356,-0.029858747418413135,0.05943387702132425,-0.9424704386047607,-0.895762422552394,1.3002464556001618,14.429725642003126,-0.9158301283671326,14.458759522431635,3.65,44,GOOD,30.0
8.227424749163879,247,0.00748875874075711,-0.008029600772283367,0.044617470082842725,0.2246627622227133,-0.24088802316850103,0.3293939836056022,19.44345868224534,23.623244932655854,30.595845905554437,3.65,44,GOOD,30.0
8.26086956521739,248,0.011792004673719846,0.02263735243193321,0.046424561455450854,0.35376014021159535,0.6791205729579963,0.7657355871430587,7.095544893147292,12.76862660119346,14.607689160554242,3.65,44,GOOD,30.0
8.294314381270903,249,0.023256636281084427,0.020345125008146548,0.008801375253586097,0.6976990884325328,0.6103537502443964,0.9269928362382237,5.021359960924314,-21.68845139004304,22.26214229483393,3.65,44,GOOD,30.0
8.327759197324415,250,0.022950582364662762,-0.025559206212606878,0.027222844301851963,0.6885174709398829,-0.7667761863782063,1.030534826090879,-7.417624123061622,-8.571952525148053,11.33576277647066,3.65,44,GOOD,30.0
8.361204013377925,251,0.006773027118725267,0.0012963416189286526,0.06122757089525843,0.203190813561758,0.03889024856785958,0.20687909065335483,-14.454410821978444,29.120174540453668,32.510222353546176,3.65,44,GOOD,30.0
8.394648829431437,252,-0.009170330573067108,0.03915229276617905,0.03360355921911308,-0.2751099171920133,1.1745687829853715,1.2063570335937588,-6.658310578371654,-1.5395591325197175,6.833984348868582,3.65,44,GOOD,30.0
8.42809364548495,253,-0.008023218610989518,-0.0021249008977818305,0.04407809627509325,-0.24069655832968553,-0.06374702693345492,0.2489950132725761,-3.6223977572151074,-38.78701480183731,38.95579909011524,3.65,44,GOOD,30.0
8.461538461538462,254,-0.01722010336687846,-0.04704107346012608,0.02548682727447013,-0.5166031010063538,-1.4112322038037823,1.5028157229089203,3.793939556483857,0.8594390654536946,3.890065920454414,3.65,44,GOOD,30.0
8.494983277591972,255,0.00040775818119683166,-0.00021503630788473165,0.0589366540699085,0.01223274543590495,-0.006451089236541949,0.013829555785978116,5.579274133716283,24.57685602625488,25.202185460678137,3.65,44,GOOD,30.0
8.528428093645484,256,-0.004821716403064497,0.007574162153773652,0.02505736933422095,-0.1446514920919349,0.22722486461320957,0.26936071217405577,0.5357592418201244,-14.350058021424763,14.36005582104237,3.65,44,GOOD,30.0
8.561872909698996,257,0.0015983342741304413,-0.032104054133273094,0.04688466745706441,0.04795002822391324,-0.9631216239981928,0.9643145066935321,5.70930831686073,5.2338480427882175,7.74528029137572,3.65,44,GOOD,30.0
8.595317725752508,258,0.007865635412181568,0.019204935582191912,0.03932149114953601,0.23596906236544704,0.5761480674657574,0.6225977786967724,7.73866258346008,20.755028350567123,22.150803606494506,3.65,44,GOOD,30.0
8.62876254180602,259,0.018795362237375064,0.014018231090209402,0.005411763442951663,0.5638608671212519,0.4205469327062821,0.7034193628834738,-18.729007344189064,-8.854475980267194,20.71659868279097,3.65,44,GOOD,30.0
8.66220735785953,260,-0.03375438090823857,-0.0004716777072907405,0.04268576075136872,-1.012631427247157,-0.014150331218722216,1.0127302895254067,-18.585834184245936,-3.797384477493912,18.96980129559075,3.65,44,GOOD,30.0
8.695652173913043,261,-0.02250649150539369,0.00557959891800071,0.07036687290430337,-0.6751947451618107,0.1673879675400213,0.6956340097862537,30.434542647440427,0.16328059456409938,30.4349806425342,3.65,44,GOOD,30.0
8.729096989966555,262,0.03387793608607349,-0.00010883194159274192,0.0038007475363455645,1.0163380825822048,-0.0032649582477822575,1.0163433268631386,10.341717073377364,-6.658299757979868,12.299758846940847,3.65,44,GOOD,30.0
8.762541806020067,263,0.0004751019910004513,-0.009216622766398994,0.006354587633577786,0.01425305973001354,-0.27649868299196984,0.27686580035815395,-22.90520740167499,3.0175016257612675,23.103113257204505,3.65,44,GOOD,30.0
8.795986622073578,264,-0.017022524806537598,0.006596727226765631,0.018611485974947942,-0.5106757441961279,0.19790181680296892,0.5476813350883751,-0.4986257404847628,20.6685899542361,20.67460370419282,3.65,44,GOOD,30.0
8.82943143812709,265,-0.0006329552100767994,0.03671357713190346,0.03715163537420544,-0.018988656302303984,1.1014073139571037,1.1015709874113284,13.480059591185361,-3.105048066215841,13.833052088220414,3.65,44,GOOD,30.0
8.862876254180602,266,0.012933163173874312,-0.000303379587047349,0.05518894133964892,0.3879948952162294,-0.00910138761142047,0.38810162840460505,5.141804398154511,-31.260853605922787,31.680895199470246,3.65,44,GOOD,30.0
8.896321070234114,267,0.010793276785822113,-0.03275498643681385,0.012504203402464466,0.3237983035746634,-0.9826495931044155,1.0346233924603208,-5.499710254513968,-0.38620274642166597,5.513253616962468,3.65,44,GOOD,30.0
8.929765886287624,268,0.0007115848305099381,-0.001161607912428829,0.02036989411516246,0.021347544915298142,-0.03484823737286487,0.040867068917481805,-12.249104838969084,10.741321117755515,16.291609764255846,3.65,44,GOOD,30.0
8.963210702341136,269,-0.016426956189664735,-0.008885383952912707,0.010129610733581556,-0.49280868568994207,-0.2665615185873812,0.5602815755341763,9.505694131643798,0.18021264516703775,9.507402248871426,3.65,44,GOOD,30.0
8.996655518394649,270,0.021835349567496155,-0.0007611353676131895,0.03216308433435784,0.6550604870248846,-0.022834061028395684,0.6554583404033605,9.841268325158753,15.552563802750422,18.404695137013153,3.65,44,GOOD,30.0
9.03010033444816,271,0.005442528977354713,0.02567586894208823,0.034650645575717946,0.1632758693206414,0.7702760682626469,0.7873907739112601,-28.333358412183728,-1.5853795120074259,28.377678324879845,3.65,44,GOOD,30.0
9.063545150501671,272,-0.04112766912624546,-0.004284200949851913,0.023540056012047388,-1.2338300737873638,-0.12852602849555742,1.2405061833715187,-4.552042147236459,-16.837910164024706,17.44237100860957,3.65,44,GOOD,30.0
9.096989966555183,273,-0.0046731202387263054,-0.01174170920018889,0.048063489100487064,-0.14019360716178916,-0.3522512760056667,0.3791242658240889,33.388929475260916,7.050567665435007,34.12522697226826,3.65,44,GOOD,30.0
9.130434782608695,274,0.033069951929889915,0.011383727195559213,0.013849908105908342,0.9920985578966974,0.34151181586677637,1.0492329907877134,18.092159418520204,7.907108226197004,19.74458388839688,3.65,44,GOOD,30.0
9.163879598662207,275,0.03553167846909637,0.005829642413582232,0.025097472681799255,1.0659503540728912,0.17488927240746696,1.0802020250635227,-22.12218599334281,-2.3522051282563687,22.246887020197867,3.65,44,GOOD,30.0
9.197324414715718,276,-0.016090461388649658,0.0061566046883228375,0.05832025471221354,-0.4827138416594897,0.18469814064968512,0.5168423899885861,-31.124476683299395,-2.9396788368077953,31.262993466282516,3.65,44,GOOD,30.0
9.23076923076923,277,-0.033633825271568954,-0.0007029772237684244,0.0324277745976403,-1.0090147581470685,-0.021089316713052732,1.0092351269342594,13.997572449108095,-9.933840963277836,17.164301056312393,3.65,44,GOOD,30.0
9.264214046822742,278,0.015015255164923887,-0.015918597452294576,0.014089772981910085,0.4504576549477166,-0.4775579235688373,0.6564858484875173,22.212026814297207,3.0423801909049955,22.419415969758653,3.65,44,GOOD,30.0
9.297658862876254,279,0.01572623431575818,0.006057867644909344,0.016454606107289344,0.47178702947274537,0.1817360293472803,0.5055798508066086,-4.515629483704195,19.727659785372268,20.237872176725812,3.65,44,GOOD,30.0
9.331103678929766,280,0.004980522978914567,0.02792064651519936,0.030687912895947175,0.14941568936743702,0.8376193954559807,0.8508415245350858,-12.831790698611961,-7.157901964894243,14.693209760703116,3.65,44,GOOD,30.0
9.364548494983277,281,-0.012788856125601733,-0.009848581165966753,0.05946335583934172,-0.383665683768052,-0.29545743497900256,0.4842462728669973,-12.381883202540369,-19.336483040340827,22.961067222817405,3.65,44,GOOD,30.0
9.397993311036789,282,-0.022534773026730695,-0.015049315796669148,0.004763457114970687,-0.6760431908019209,-0.4514794739000744,0.8129379503890383,14.477415484501522,3.986987316849923,15.016378623876216,3.65,44,GOOD,30.0
9.431438127090301,283,0.01938317828440165,-0.0009886093507447007,0.02993944230271466,0.5814953485320494,-0.029658280522341023,0.5822511949047006,21.87100948763207,0.8433869880355188,21.887264735907035,3.65,44,GOOD,30.0
9.464882943143813,284,0.026067470279118345,-0.01317512248992355,0.034593505530076694,0.7820241083735504,-0.3952536746977065,0.876234656607171,-24.9321739809762,-2.735672863478111,25.081810250331557,3.65,44,GOOD,30.0
9.498327759197323,285,-0.03602165278443435,-0.007067882380696058,0.03343624283873044,-1.0806495835330305,-0.21203647142088175,1.1012551873215994,-13.18466739546123,14.752787130847603,19.785858143053613,3.65,44,GOOD,30.0
9.531772575250836,286,-0.0032317905996843855,0.01960884891196001,0.03991918628915173,-0.09695371799053157,0.5882654673588003,0.5962015460555727,16.971475802550582,7.690673288938588,18.63269831650138,3.65,44,GOOD,30.0
9.565217391304348,287,0.0016927378879002773,0.010022502705834135,0.04500675525583159,0.05078213663700832,0.30067508117502406,0.3049333203194218,-3.6195307126922103,-12.219374387204457,12.744179573232264,3.65,44,GOOD,30.0
9.59866220735786,288,-0.011275192183444853,-0.007545316392938782,0.03463018325027508,-0.3382557655033456,-0.22635949178816347,0.4070080864293116,17.244079351498733,-4.017311033614449,17.70584820395751,3.65,44,GOOD,30.0
9.63210702341137,289,0.04001291422456413,0.001095144853357583,0.021475259186125785,1.200387426736924,0.032854345600727496,1.2008369507526597,-8.738005788774544,3.6190671279123823,9.457821738698263,3.65,44,GOOD,30.0
9.665551839464882,290,-0.03069298282516606,0.0004970550024220675,0.046724427595592116,-0.9207894847549818,0.014911650072662024,0.9209102195888774,-33.57035989420864,2.818105691327747,33.688436934862175,3.65,44,GOOD,30.0
9.698996655518394,291,-0.03458788554034396,0.007357601945197021,0.061211143977888835,-1.0376365662103189,0.22072805835591064,1.0608536747743826,27.24587764300569,-7.052072328132557,28.143730610188307,3.65,44,GOOD,30.0
9.732441471571907,292,0.029853411937068808,-0.015174216837872503,0.03277299981610901,0.8956023581120642,-0.4552265051361751,1.0046565357545763,20.742445469145093,-13.65641997247067,24.8343884664985,3.65,44,GOOD,30.0
9.765886287625417,293,0.01150643772442291,-0.022989997993626693,0.008707330604619644,0.3451931317326873,-0.6896999398088008,0.7712615024540534,-23.751673146843263,0.2805935844816648,23.75333050403938,3.65,44,GOOD,30.0
9.799331103678929,294,-0.022928083944805108,-0.014550675539024359,0.022848674661736006,-0.6878425183441532,-0.43652026617073075,0.8146639017532276,-2.8850125669209525,15.49933610867927,15.765554773654522,3.65,44,GOOD,30.0
9.832775919732441,295,0.005095298686820793,0.011452971136771685,0.05718943346795222,0.15285896060462378,0.34358913410315056,0.37605764838768896,14.454172187074969,10.919366744584439,18.115067311946376,3.65,44,GOOD,30.0
9.866220735785953,296,0.009192298693139266,0.009714583893385505,0.009987918382760955,0.275768960794178,0.29143751680156516,0.40122854576533246,-24.077930443246437,-0.26590993501868193,24.079398715984485,3.65,44,GOOD,30.0
9.899665551839464,297,-0.048411213409282394,0.010862060170063503,0.03069059135916679,-1.452336402278472,0.3258618051019051,1.4884444703808897,5.2349814497664875,-2.8706165902568133,5.970382767265168,3.65,44,GOOD,30.0
9.933110367892976,298,0.02082559080373146,0.003335435915037031,0.08952502085943569,0.6247677241119438,0.10006307745111093,0.6327300597893267,37.112290761463136,-15.93746304573919,40.38966271086804,3.65,44,GOOD,30.0
9.966555183946488,299,0.03406054383841345,-0.02455452437602358,0.0202366650907038,1.0218163151524036,-0.7366357312807075,1.2596589945342742,-25.343786908762965,-8.707960794169251,26.798061796883257,3.65,44,GOOD,30.0
10.0,300,-0.035493935660186236,-0.016015588072005753,0.03312023984050994,-1.0648180698055871,-0.48046764216017257,1.1681980469712538,-62.59903154873973,7.6850426736160475,63.06899897521295,3.65,44,GOOD,30.0
